Time	Device name	Chip Time()	Acceleration X(g)	Acceleration Y(g)	Acceleration Z(g)	Angular velocity X(°/s)	Angular velocity Y(°/s)	Angular velocity Z(°/s)	Angle X(°)	Angle Y(°)	Angle Z(°)	Magnetic field X(?t)	Magnetic field Y(?t)	Magnetic field Z(?t)	Temperature(?)	Quaternions 0()	Quaternions 1()	Quaternions 2()	Quaternions 3()
21:03:36.770	e1:5b:a6:6b:d9:35	2015-1-1 0:19:30.060	0.133	-0.33	0.922	-97.046	7.08	-38.635	-18.083	-16.677	39.315	-5.194	19.110	-31.262	30.97	0.91061	-0.00604	-0.19708	0.36307
21:03:36.892	e1:5b:a6:6b:d9:35	2015-1-1 0:19:30.060	0.086	-0.386	0.954	-14.893	103.149	-18.738	-23.621	-8.251	32.899	-0.294	29.400	-24.206	30.97	0.91061	-0.00604	-0.19708	0.36307
21:03:36.951	e1:5b:a6:6b:d9:35	2015-1-1 0:19:30.060	-0.041	-0.411	0.935	5.493	81.909	1.343	-22.533	-3.12	29.789	-0.294	29.400	-24.206	30.97	0.91061	-0.00604	-0.19708	0.36307
21:03:37.071	e1:5b:a6:6b:d9:35	2015-1-1 0:19:30.060	-0.068	-0.386	0.931	9.155	27.1	-2.747	-21.742	2.527	27.345	-0.294	29.400	-24.206	30.97	0.91061	-0.00604	-0.19708	0.36307
21:03:37.161	e1:5b:a6:6b:d9:35	2015-1-1 0:19:30.060	-0.105	-0.371	0.941	5.31	7.324	-3.845	-20.984	3.801	26.642	-0.294	29.400	-24.206	30.97	0.91061	-0.00604	-0.19708	0.36307
21:03:37.281	e1:5b:a6:6b:d9:35	2015-1-1 0:19:30.060	-0.195	-0.363	0.937	5.859	44.617	-8.85	-20.407	5.532	25.296	-0.294	29.400	-24.206	30.97	0.91061	-0.00604	-0.19708	0.36307
21:03:37.370	e1:5b:a6:6b:d9:35	2015-1-1 0:19:30.060	-0.286	-0.33	0.927	17.151	51.575	-6.104	-19.677	10.272	22.917	-0.294	29.400	-24.206	30.97	0.91061	-0.00604	-0.19708	0.36307
21:03:37.491	e1:5b:a6:6b:d9:35	2015-1-1 0:19:30.060	-0.393	-0.324	0.93	7.935	68.665	-1.709	-18.995	15.886	20.995	-0.294	29.400	-24.206	30.97	0.91061	-0.00604	-0.19708	0.36307
21:03:37.581	e1:5b:a6:6b:d9:35	2015-1-1 0:19:30.060	-0.454	-0.295	0.902	28.625	59.509	3.967	-17.864	21.407	19.55	-0.294	29.400	-24.206	30.97	0.91061	-0.00604	-0.19708	0.36307
21:03:37.701	e1:5b:a6:6b:d9:35	2015-1-1 0:19:30.060	-0.495	-0.249	0.892	49.255	46.753	15.381	-14.518	25.329	19.737	-0.294	29.400	-24.206	30.97	0.91061	-0.00604	-0.19708	0.36307
21:03:37.761	e1:5b:a6:6b:d9:35	2015-1-1 0:19:30.060	-0.566	-0.181	0.855	39.429	33.447	8.057	-10.668	28.746	21.044	-0.294	29.400	-24.206	30.97	0.91061	-0.00604	-0.19708	0.36307
21:03:37.881	e1:5b:a6:6b:d9:35	2015-1-1 0:19:30.060	-0.596	-0.059	0.84	52.612	30.273	17.578	-4.51	32.305	23.665	29.106	20.384	-17.738	30.97	0.91061	-0.00604	-0.19708	0.36307
21:03:37.971	e1:5b:a6:6b:d9:35	2015-1-1 0:19:30.060	-0.614	0.065	0.769	56.091	8.118	25.146	3.038	35.079	27.587	29.106	20.384	-17.738	30.97	0.91061	-0.00604	-0.19708	0.36307
21:03:38.091	e1:5b:a6:6b:d9:35	2015-1-1 0:19:30.060	-0.56	0.209	0.76	80.75	8.728	38.696	13.596	36.024	33.777	29.106	20.384	-17.738	30.97	0.91061	-0.00604	-0.19708	0.36307
21:03:38.181	e1:5b:a6:6b:d9:35	2015-1-1 0:19:30.060	-0.524	0.4	0.7	114.807	29.236	75.745	27.389	33.81	42.918	29.106	20.384	-17.738	30.97	0.91061	-0.00604	-0.19708	0.36307
21:03:38.302	e1:5b:a6:6b:d9:35	2015-1-1 0:19:30.060	-0.405	0.599	0.612	78.308	-16.296	64.453	39.518	30.635	52.07	29.106	20.384	-17.738	30.97	0.91061	-0.00604	-0.19708	0.36307
21:03:38.361	e1:5b:a6:6b:d9:35	2015-1-1 0:19:30.060	-0.286	0.697	0.575	68.848	-42.603	87.28	47.505	22.978	57.706	29.106	20.384	-17.738	30.97	0.91061	-0.00604	-0.19708	0.36307
21:03:38.480	e1:5b:a6:6b:d9:35	2015-1-1 0:19:30.060	-0.171	0.808	0.536	54.81	-30.762	54.565	52.657	16.298	61.364	29.106	20.384	-17.738	30.97	0.91061	-0.00604	-0.19708	0.36307
21:03:38.571	e1:5b:a6:6b:d9:35	2015-1-1 0:19:33.100	-0.028	0.869	0.465	21.423	-42.48	73.914	56.926	9.86	64.292	29.106	20.384	-17.738	30.97	0.91061	-0.00604	-0.19708	0.36307
21:03:38.691	e1:5b:a6:6b:d9:35	2015-1-1 0:19:33.100	0.148	0.893	0.442	12.756	-47.791	84.961	59.244	1.478	66.05	29.106	20.384	-17.738	30.97	0.91061	-0.00604	-0.19708	0.36307
21:03:38.781	e1:5b:a6:6b:d9:35	2015-1-1 0:19:33.100	0.298	0.94	0.412	-5.981	-29.297	75.623	60.639	-6.504	67.95	29.106	20.384	-17.738	30.97	0.91061	-0.00604	-0.19708	0.36307
21:03:38.900	e1:5b:a6:6b:d9:35	2015-1-1 0:19:33.100	0.342	0.821	0.487	-39.368	-7.751	67.871	56.102	-14.694	70.785	1.764	-38.612	-22.736	30.97	0.91061	-0.00604	-0.19708	0.36307
21:03:38.991	e1:5b:a6:6b:d9:35	2015-1-1 0:19:33.100	0.348	0.716	0.56	-42.908	37.72	58.044	49.796	-17.672	78.107	1.764	-38.612	-22.736	30.97	0.6575	0.41428	0.15567	0.60968
21:03:39.111	e1:5b:a6:6b:d9:35	2015-1-1 0:19:33.635	0.347	0.702	0.605	-47.607	39.856	44.495	45.989	-18.671	84.479	1.764	-38.612	-22.736	30.97	0.6575	0.41428	0.15567	0.60968
21:03:39.171	e1:5b:a6:6b:d9:35	2015-1-1 0:19:33.635	0.314	0.608	0.693	-85.022	53.894	21.301	38.831	-17.825	89.604	1.764	-38.612	-22.736	30.97	0.6575	0.41428	0.15567	0.60968
21:03:39.290	e1:5b:a6:6b:d9:35	2015-1-1 0:19:33.635	0.249	0.54	0.77	-37.903	38.086	2.686	33.728	-15.765	92.785	1.764	-38.612	-22.736	30.97	0.6575	0.41428	0.15567	0.60968
21:03:39.382	e1:5b:a6:6b:d9:35	2015-1-1 0:19:33.635	0.139	0.5	0.831	-26.001	56.885	-14.526	30.449	-11.514	94.933	1.764	-38.612	-22.736	30.97	0.6575	0.41428	0.15567	0.60968
21:03:39.501	e1:5b:a6:6b:d9:35	2015-1-1 0:19:33.635	0.002	0.47	0.861	1.831	76.66	-30.029	28.63	-5.136	96.411	1.764	-38.612	-22.736	30.97	0.6575	0.41428	0.15567	0.60968
21:03:39.590	e1:5b:a6:6b:d9:35	2015-1-1 0:19:34.145	-0.226	0.443	0.901	-18.372	82.825	-41.748	27.004	3.51	96.762	1.764	-38.612	-22.736	30.97	0.6575	0.41428	0.15567	0.60968
21:03:39.710	e1:5b:a6:6b:d9:35	2015-1-1 0:19:34.145	-0.389	0.414	0.91	25.513	136.414	-96.497	27.724	15.216	96.136	1.764	-38.612	-22.736	30.97	0.6575	0.41428	0.15567	0.60968
21:03:39.770	e1:5b:a6:6b:d9:35	2015-1-1 0:19:34.145	-0.487	0.392	0.818	11.902	35.95	-83.008	25.45	23.516	90.764	1.764	-38.612	-22.736	30.97	0.6575	0.41428	0.15567	0.60968
21:03:39.891	e1:5b:a6:6b:d9:35	2015-1-1 0:19:34.145	-0.752	0.327	0.828	37.842	87.585	-171.143	24.005	30.668	82.716	37.044	-7.056	-18.228	30.97	0.6575	0.41428	0.15567	0.60968
21:03:39.980	e1:5b:a6:6b:d9:35	2015-1-1 0:19:34.145	-0.83	0.225	0.629	64.27	108.704	-208.74	18.781	46.428	65.792	37.044	-7.056	-18.228	30.97	0.79623	-0.08527	0.40796	0.43842
21:03:40.101	e1:5b:a6:6b:d9:35	2015-1-1 0:19:34.620	-0.887	0.044	0.56	12.512	33.569	-91.614	6.894	55.261	46.11	37.044	-7.056	-18.228	30.97	0.79623	-0.08527	0.40796	0.43842
21:03:40.191	e1:5b:a6:6b:d9:35	2015-1-1 0:19:34.620	-0.899	-0.058	0.498	14.16	24.78	-56.213	-3.104	59.194	32.19	37.044	-7.056	-18.228	30.97	0.79623	-0.08527	0.40796	0.43842
21:03:40.312	e1:5b:a6:6b:d9:35	2015-1-1 0:19:34.620	-0.881	-0.088	0.438	12.756	1.648	-15.076	-9.761	60.612	22.527	37.044	-7.056	-18.228	30.97	0.79623	-0.08527	0.40796	0.43842
21:03:40.401	e1:5b:a6:6b:d9:35	2015-1-1 0:19:34.620	-0.841	-0.113	0.495	-4.089	-31.677	3.479	-9.02	59.161	23.423	36.456	22.344	-5.586	30.97	0.79623	-0.08527	0.40796	0.43842
21:03:40.522	e1:5b:a6:6b:d9:35	2015-1-1 0:19:34.620	-0.609	-0.066	0.57	-99.976	-105.286	109.68	-3.29	54.377	35.14	36.456	22.344	-5.586	30.97	0.84348	-0.16263	0.42349	0.28741
21:03:40.580	e1:5b:a6:6b:d9:35	2015-1-1 0:19:35.155	-0.461	-0.029	0.764	-77.393	-188.782	104.553	0.654	40.54	51.976	36.456	22.344	-5.586	30.97	0.84348	-0.16263	0.42349	0.28741
21:03:40.702	e1:5b:a6:6b:d9:35	2015-1-1 0:19:35.155	-0.249	-0.022	0.897	-37.659	-114.99	33.508	-0.165	27.021	58.777	36.456	22.344	-5.586	30.97	0.84348	-0.16263	0.42349	0.28741
21:03:40.790	e1:5b:a6:6b:d9:35	2015-1-1 0:19:35.155	-0.025	-0.073	0.957	-36.743	-119.202	40.771	-1.285	16.205	62.089	36.456	22.344	-5.586	30.97	0.84348	-0.16263	0.42349	0.28741
21:03:40.912	e1:5b:a6:6b:d9:35	2015-1-1 0:19:35.155	0.146	-0.146	0.98	-54.077	-160.95	20.02	-5.125	2.214	65.012	14.308	17.150	-28.714	30.97	0.84348	-0.16263	0.42349	0.28741
21:03:41.000	e1:5b:a6:6b:d9:35	2015-1-1 0:19:35.155	0.254	-0.222	0.963	-16.724	-63.232	14.709	-9.679	-7.526	65.462	14.308	17.150	-28.714	30.97	0.83945	-0.03235	-0.13147	0.52621
21:03:41.122	e1:5b:a6:6b:d9:35	2015-1-1 0:19:35.635	0.284	-0.249	0.947	-6.592	-26.001	12.085	-12.31	-12.469	64.742	14.308	17.150	-28.714	30.97	0.83945	-0.03235	-0.13147	0.52621
21:03:41.181	e1:5b:a6:6b:d9:35	2015-1-1 0:19:35.635	0.298	-0.304	0.895	-54.565	-22.156	-2.563	-16.221	-14.595	64.226	14.308	17.150	-28.714	30.97	0.83945	-0.03235	-0.13147	0.52621
21:03:41.301	e1:5b:a6:6b:d9:35	2015-1-1 0:19:35.635	0.313	-0.444	0.825	-116.821	-8.606	7.69	-24.851	-16.271	62.748	14.308	17.150	-28.714	30.97	0.83945	-0.03235	-0.13147	0.52621
21:03:41.391	e1:5b:a6:6b:d9:35	2015-1-1 0:19:35.635	0.301	-0.631	0.722	-139.587	14.832	6.653	-38.694	-15.463	60.452	-0.490	38.416	-13.034	30.97	0.83945	-0.03235	-0.13147	0.52621
21:03:41.511	e1:5b:a6:6b:d9:35	2015-1-1 0:19:35.635	0.266	-0.79	0.517	-146.667	20.935	-6.653	-53.08	-14.617	56.662	-0.490	38.416	-13.034	30.97	0.80246	-0.35925	-0.31616	0.35626
21:03:41.601	e1:5b:a6:6b:d9:35	2015-1-1 0:19:36.140	0.288	-0.884	0.415	-39.978	11.719	-0.305	-64.199	-14.568	51.608	-0.490	38.416	-13.034	30.97	0.80246	-0.35925	-0.31616	0.35626
21:03:41.721	e1:5b:a6:6b:d9:35	2015-1-1 0:19:36.140	0.282	-0.931	0.304	-34.119	6.958	-7.324	-67.802	-14.843	48.411	-0.490	38.416	-13.034	30.97	0.80246	-0.35925	-0.31616	0.35626
21:03:41.811	e1:5b:a6:6b:d9:35	2015-1-1 0:19:36.140	0.261	-0.924	0.306	9.949	15.625	6.775	-68.483	-14.733	45.626	-0.490	38.416	-13.034	30.97	0.80246	-0.35925	-0.31616	0.35626
21:03:41.931	e1:5b:a6:6b:d9:35	2015-1-1 0:19:36.140	0.189	-0.901	0.335	19.165	8.118	9.46	-67.094	-12.805	44.374	0.392	46.452	11.662	30.97	0.80246	-0.35925	-0.31616	0.35626
21:03:41.991	e1:5b:a6:6b:d9:35	2015-1-1 0:19:36.140	0.125	-0.903	0.395	24.17	43.518	11.108	-63.056	-9.421	40.732	0.392	46.452	11.662	30.97	0.80246	-0.35925	-0.31616	0.35626
21:03:42.110	e1:5b:a6:6b:d9:35	2015-1-1 0:19:36.645	-0.038	-0.852	0.457	43.091	98.572	29.785	-58.618	-4.076	33.898	0.392	46.452	11.662	30.97	0.8259	-0.46161	-0.21149	0.24487
21:03:42.201	e1:5b:a6:6b:d9:35	2015-1-1 0:19:36.645	-0.148	-0.823	0.543	36.255	115.845	24.78	-54.987	4.427	25.307	0.392	46.452	11.662	30.97	0.8259	-0.46161	-0.21149	0.24487
21:03:42.321	e1:5b:a6:6b:d9:35	2015-1-1 0:19:36.645	-0.232	-0.865	0.572	20.142	51.331	10.071	-53.954	9.201	20.506	0.392	46.452	11.662	30.97	0.8259	-0.46161	-0.21149	0.24487
21:03:42.412	e1:5b:a6:6b:d9:35	2015-1-1 0:19:36.645	-0.4	-0.73	0.589	47.363	32.349	46.57	-50.081	14.414	19.254	17.248	40.964	1.764	30.97	0.8259	-0.46161	-0.21149	0.24487
21:03:42.531	e1:5b:a6:6b:d9:35	2015-1-1 0:19:36.645	-0.659	-0.612	0.676	118.958	75.134	110.291	-39.062	25.406	22.577	17.248	40.964	1.764	30.97	0.88943	-0.33157	0.17926	0.25836
21:03:42.591	e1:5b:a6:6b:d9:35	2015-1-1 0:19:36.645	-0.734	-0.319	0.756	128.174	63.965	82.214	-24.598	36.381	25.757	17.248	40.964	1.764	30.97	0.88943	-0.33157	0.17926	0.25836
21:03:42.712	e1:5b:a6:6b:d9:35	2015-1-1 0:19:37.150	-0.717	-0.029	0.698	144.409	62.927	116.943	-6.685	44.313	36.024	17.248	40.964	1.764	30.97	0.88943	-0.33157	0.17926	0.25836
21:03:42.801	e1:5b:a6:6b:d9:35	2015-1-1 0:19:37.150	-0.66	0.243	0.641	115.784	7.935	106.323	17.946	46.313	55.684	17.248	40.964	1.764	30.97	0.88943	-0.33157	0.17926	0.25836
21:03:42.921	e1:5b:a6:6b:d9:35	2015-1-1 0:19:37.150	-0.633	0.509	0.497	140.564	52.002	89.844	38.765	42.825	70.873	44.198	-14.014	-3.822	30.97	0.88943	-0.33157	0.17926	0.25836
21:03:43.011	e1:5b:a6:6b:d9:35	2015-1-1 0:19:37.150	-0.493	0.708	0.324	96.619	23.743	72.327	58.727	39.21	84.924	44.198	-14.014	-3.822	30.97	0.88943	-0.33157	0.17926	0.25836
21:03:43.130	e1:5b:a6:6b:d9:35	2015-1-1 0:19:37.660	-0.35	0.823	0.304	2.625	-76.66	59.998	62.507	31.74	87.693	44.198	-14.014	-3.822	30.97	0.6987	0.16953	0.53455	0.44409
21:03:43.220	e1:5b:a6:6b:d9:35	2015-1-1 0:19:37.660	-0.138	0.861	0.442	-23.254	-141.479	85.51	58.337	21.116	84.161	44.198	-14.014	-3.822	30.97	0.6987	0.16953	0.53455	0.44409
21:03:43.340	e1:5b:a6:6b:d9:35	2015-1-1 0:19:37.660	0.081	0.875	0.532	-13.977	-86.121	79.712	54.992	8.91	80.53	44.198	-14.014	-3.822	30.97	0.6987	0.16953	0.53455	0.44409
21:03:43.402	e1:5b:a6:6b:d9:35	2015-1-1 0:19:37.660	0.232	0.826	0.47	10.254	-68.542	120.85	54.679	-2.538	81.782	44.198	-14.014	-3.822	30.97	0.6987	0.16953	0.53455	0.44409
21:03:43.520	e1:5b:a6:6b:d9:35	2015-1-1 0:19:37.660	0.385	0.832	0.531	-1.282	-25.452	47.607	55.624	-11.151	84.765	12.446	-40.180	-17.836	30.97	0.6987	0.16953	0.53455	0.44409
21:03:43.611	e1:5b:a6:6b:d9:35	2015-1-1 0:19:37.660	0.392	0.809	0.493	-15.381	-41.87	27.893	55.833	-15.826	85.77	12.446	-40.180	-17.836	30.97	0.60815	0.41119	0.24078	0.6348
21:03:43.731	e1:5b:a6:6b:d9:35	2015-1-1 0:19:38.165	0.444	0.808	0.481	-14.648	-6.897	31.067	55.624	-20.094	86.517	12.446	-40.180	-17.836	30.97	0.60815	0.41119	0.24078	0.6348
21:03:43.821	e1:5b:a6:6b:d9:35	2015-1-1 0:19:38.165	0.492	0.769	0.481	-6.653	-9.216	34.302	54.234	-22.95	89.138	12.446	-40.180	-17.836	30.97	0.60815	0.41119	0.24078	0.6348
21:03:43.940	e1:5b:a6:6b:d9:35	2015-1-1 0:19:38.165	0.497	0.736	0.489	-13.489	11.597	32.104	52.284	-25.219	92.401	-5.782	-39.690	-21.364	30.97	0.60815	0.41119	0.24078	0.6348
21:03:44.002	e1:5b:a6:6b:d9:35	2015-1-1 0:19:38.165	0.481	0.695	0.521	-14.954	21.667	30.457	49.488	-26.29	96.943	-5.782	-39.690	-21.364	30.97	0.60815	0.41119	0.24078	0.6348
21:03:44.122	e1:5b:a6:6b:d9:35	2015-1-1 0:19:38.165	0.426	0.646	0.608	-25.085	43.091	8.179	45.439	-25.56	101.678	-5.782	-39.690	-21.364	30.97	0.5033	0.40295	0.16293	0.74677
21:03:44.212	e1:5b:a6:6b:d9:35	2015-1-1 0:19:38.165	0.316	0.603	0.656	-42.358	67.2	-1.465	40.677	-22.407	106.232	-5.782	-39.690	-21.364	30.97	0.5033	0.40295	0.16293	0.74677
21:03:44.331	e1:5b:a6:6b:d9:35	2015-1-1 0:19:38.165	0.17	0.545	0.733	-79.468	74.219	-5.615	33.92	-16.672	110.402	-5.782	-39.690	-21.364	30.97	0.5033	0.40295	0.16293	0.74677
21:03:44.421	e1:5b:a6:6b:d9:35	2015-1-1 0:19:38.165	0.034	0.382	0.851	-120.361	92.224	-24.475	24.335	-9.437	112.665	-5.782	-39.690	-21.364	30.97	0.5033	0.40295	0.16293	0.74677
21:03:44.541	e1:5b:a6:6b:d9:35	2015-1-1 0:19:38.165	-0.021	0.207	1.051	-49.316	63.538	-23.682	13.085	0.829	112.214	14.014	-18.424	-31.654	30.97	0.5033	0.40295	0.16293	0.74677
21:03:44.661	e1:5b:a6:6b:d9:35	2015-1-1 0:19:38.165	-0.092	0.079	1.042	-82.397	12.268	-101.685	7.465	4.521	105.716	14.014	-18.424	-31.654	30.97	0.57687	0.03082	0.08807	0.81143
21:03:44.750	e1:5b:a6:6b:d9:35	2015-1-1 0:19:38.165	-0.25	0.057	1	-22.461	65.002	-91.003	3.62	8.531	96.63	14.014	-18.424	-31.654	30.97	0.57687	0.03082	0.08807	0.81143
21:03:44.811	e1:5b:a6:6b:d9:35	2015-1-1 0:19:38.165	-0.406	-0.027	1.004	-26.55	94.055	-86.487	-0.544	17.122	87.424	14.014	-18.424	-31.654	30.97	0.57687	0.03082	0.08807	0.81143
21:03:44.931	e1:5b:a6:6b:d9:35	2015-1-1 0:19:38.165	-0.511	-0.167	0.961	-57.861	74.524	-76.721	-8.339	23.318	77.465	14.014	-18.424	-31.654	30.97	0.57687	0.03082	0.08807	0.81143
21:03:45.021	e1:5b:a6:6b:d9:35	2015-1-1 0:19:38.165	-0.488	-0.29	0.866	-59.753	80.505	-96.924	-19.55	28.647	64.764	14.014	-18.424	-31.654	30.97	0.57687	0.03082	0.08807	0.81143
21:03:45.140	e1:5b:a6:6b:d9:35	2015-1-1 0:19:38.165	-0.73	-0.428	0.79	-18.494	129.883	-59.387	-28.504	34.332	51.823	14.014	-18.424	-31.654	30.97	0.57687	0.03082	0.08807	0.81143
21:03:45.230	e1:5b:a6:6b:d9:35	2015-1-1 0:19:38.165	-0.9	-0.405	0.561	18.494	167.908	21.118	-34.898	47.856	39.276	14.014	-18.424	-31.654	30.97	0.57687	0.03082	0.08807	0.81143
21:03:45.350	e1:5b:a6:6b:d9:35	2015-1-1 0:19:38.165	-0.981	-0.341	0.333	19.653	94.36	47.852	-39.617	60.634	29.784	14.014	-18.424	-31.654	30.97	0.57687	0.03082	0.08807	0.81143
21:03:45.412	e1:5b:a6:6b:d9:35	2015-1-1 0:19:38.165	-1.024	-0.268	0.167	-10.132	89.722	45.288	-47.115	69.802	21.396	14.014	-18.424	-31.654	30.97	0.57687	0.03082	0.08807	0.81143
21:03:45.531	e1:5b:a6:6b:d9:35	2015-1-1 0:19:38.165	-0.975	-0.131	-0.021	-44.495	78.796	84.229	-66.874	81.832	4.554	40.278	18.816	25.578	30.97	0.57687	0.03082	0.08807	0.81143
21:03:45.621	e1:5b:a6:6b:d9:35	2015-1-1 0:19:38.165	-0.938	0.062	-0.158	-46.692	88.379	96.069	143.366	84.084	-139.911	40.278	18.816	25.578	30.97	0.57687	0.03082	0.08807	0.81143
21:03:45.740	e1:5b:a6:6b:d9:35	2015-1-1 0:19:38.165	-0.901	0.238	-0.235	-44.617	42.175	123.291	125.947	73.499	-153.04	40.278	18.816	25.578	30.97	0.57687	0.03082	0.08807	0.81143
21:03:45.831	e1:5b:a6:6b:d9:35	2015-1-1 0:19:38.165	-0.802	0.417	-0.243	-23.254	3.357	63.11	115.999	63.88	-159.285	40.278	18.816	25.578	30.97	0.57687	0.03082	0.08807	0.81143
21:03:45.950	e1:5b:a6:6b:d9:35	2015-1-1 0:19:38.165	-0.826	0.48	-0.251	-9.46	-9.338	16.296	113.665	60.485	-160.801	40.278	18.816	25.578	30.97	0.57687	0.03082	0.08807	0.81143
21:03:46.012	e1:5b:a6:6b:d9:35	2015-1-1 0:19:38.165	-0.851	0.478	-0.254	-1.587	-3.967	10.437	111.951	59.639	-162.312	40.278	18.816	25.578	30.97	0.57687	0.03082	0.08807	0.81143
21:03:46.162	e1:5b:a6:6b:d9:35	2015-1-1 0:19:38.165	-0.818	0.509	-0.239	2.563	3.54	7.08	111.995	59.387	-162.471	40.278	18.816	25.578	30.97	0.57687	0.03082	0.08807	0.81143
21:03:46.222	e1:5b:a6:6b:d9:35	2015-1-1 0:19:40.695	-0.918	0.452	-0.237	25.269	-26.428	-48.157	112.462	60.738	-163.339	40.278	18.816	25.578	30.97	0.57687	0.03082	0.08807	0.81143
21:03:46.341	e1:5b:a6:6b:d9:35	2015-1-1 0:19:40.695	-0.939	0.338	-0.22	37.537	-15.625	-79.834	117.037	68.022	-162.092	40.278	18.816	25.578	30.97	0.57687	0.03082	0.08807	0.81143
21:03:46.431	e1:5b:a6:6b:d9:35	2015-1-1 0:19:40.695	-1.009	0.188	-0.221	38.818	-19.287	-61.768	129.474	74.669	-153.144	40.278	18.816	25.578	30.97	0.57687	0.03082	0.08807	0.81143
21:03:46.551	e1:5b:a6:6b:d9:35	2015-1-1 0:19:40.695	-1.006	0.098	-0.199	20.935	-1.343	-35.278	156.951	80.398	-129.402	39.788	3.920	39.298	30.97	0.57687	0.03082	0.08807	0.81143
21:03:46.640	e1:5b:a6:6b:d9:35	2015-1-1 0:19:40.695	-0.972	0.032	-0.198	3.052	2.747	-1.038	165.251	80.942	-122.316	39.788	3.920	39.298	30.97	0.51648	-0.43692	0.62036	0.3967
21:03:46.760	e1:5b:a6:6b:d9:35	2015-1-1 0:19:40.695	-0.948	0.045	-0.196	5.493	-3.723	3.845	162.323	80.717	-125.722	39.788	3.920	39.298	30.97	0.51648	-0.43692	0.62036	0.3967
21:03:46.822	e1:5b:a6:6b:d9:35	2015-1-1 0:19:40.695	-0.968	0.029	-0.19	0.427	-0.122	0.183	164.125	80.667	-123.876	39.788	3.920	39.298	30.97	0.51648	-0.43692	0.62036	0.3967
21:03:46.941	e1:5b:a6:6b:d9:35	2015-1-1 0:19:40.695	-0.982	0.025	-0.188	2.93	1.16	-15.198	168.442	80.815	-119.57	39.788	3.920	39.298	30.97	0.51648	-0.43692	0.62036	0.3967
21:03:47.061	e1:5b:a6:6b:d9:35	2015-1-1 0:19:40.695	-0.941	-0.031	-0.188	10.193	0.732	-63.354	-168.354	80.733	-96.658	39.788	3.920	39.298	30.97	0.51648	-0.43692	0.62036	0.3967
21:03:47.150	e1:5b:a6:6b:d9:35	2015-1-1 0:19:40.695	-0.954	-0.157	-0.18	18.555	-8.484	-76.416	-134.198	77.926	-63.655	39.788	3.920	39.298	30.97	0.51648	-0.43692	0.62036	0.3967
21:03:47.241	e1:5b:a6:6b:d9:35	2015-1-1 0:19:40.695	-0.856	-0.326	-0.139	32.349	-8.972	-78.735	-112.231	70.714	-43.863	39.788	3.920	39.298	30.97	0.51648	-0.43692	0.62036	0.3967
21:03:47.361	e1:5b:a6:6b:d9:35	2015-1-1 0:19:40.695	-0.843	-0.396	-0.135	32.593	-8.911	-70.374	-103.107	63.611	-37.403	39.788	3.920	39.298	30.97	0.51648	-0.43692	0.62036	0.3967
21:03:47.450	e1:5b:a6:6b:d9:35	2015-1-1 0:19:40.695	-0.811	-0.52	-0.077	29.968	-18.982	-50.781	-96.823	59.392	-33.569	39.788	3.920	39.298	30.97	0.51648	-0.43692	0.62036	0.3967
21:03:47.572	e1:5b:a6:6b:d9:35	2015-1-1 0:19:40.695	-0.805	-0.608	-0.025	36.438	-16.174	-14.038	-90.071	55.849	-29.559	24.206	35.770	27.538	30.97	0.51648	-0.43692	0.62036	0.3967
21:03:47.632	e1:5b:a6:6b:d9:35	2015-1-1 0:19:40.695	-0.764	-0.605	0.051	27.893	-22.522	-12.573	-84.216	54.245	-26.603	24.206	35.770	27.538	30.97	0.71176	-0.50366	0.46719	0.14606
21:03:47.752	e1:5b:a6:6b:d9:35	2015-1-1 0:19:42.215	-0.729	-0.598	0.148	38.94	-78.796	-6.226	-73.965	51.526	-18.534	24.206	35.770	27.538	30.97	0.71176	-0.50366	0.46719	0.14606
21:03:47.841	e1:5b:a6:6b:d9:35	2015-1-1 0:19:42.215	-0.601	-0.593	0.331	64.819	-118.591	16.296	-57.81	48.307	-4.658	24.206	35.770	27.538	30.97	0.71176	-0.50366	0.46719	0.14606
21:03:47.961	e1:5b:a6:6b:d9:35	2015-1-1 0:19:42.215	-0.473	-0.487	0.559	30.151	-157.959	18.494	-40.897	40.325	13.293	24.206	35.770	27.538	30.97	0.71176	-0.50366	0.46719	0.14606
21:03:48.051	e1:5b:a6:6b:d9:35	2015-1-1 0:19:42.215	-0.365	-0.494	0.713	27.161	-117.126	14.587	-32.432	31.289	23.901	20.776	35.182	-8.232	30.97	0.71176	-0.50366	0.46719	0.14606
21:03:48.171	e1:5b:a6:6b:d9:35	2015-1-1 0:19:42.215	-0.274	-0.388	0.848	40.955	-74.219	28.931	-25.994	24.692	30.141	20.776	35.182	-8.232	30.97	0.9072	-0.26361	0.14218	0.29523
21:03:48.230	e1:5b:a6:6b:d9:35	2015-1-1 0:19:42.215	-0.035	-0.298	0.953	69.824	-127.38	73.73	-16.985	18.435	37.491	20.776	35.182	-8.232	30.97	0.9072	-0.26361	0.14218	0.29523
21:03:48.351	e1:5b:a6:6b:d9:35	2015-1-1 0:19:42.215	0.081	-0.097	1.009	119.08	-115.967	75.134	-4.235	7.855	47.071	20.776	35.182	-8.232	30.97	0.9072	-0.26361	0.14218	0.29523
21:03:48.441	e1:5b:a6:6b:d9:35	2015-1-1 0:19:42.215	0.201	0.14	0.993	94.666	-68.481	68.176	7.756	-0.137	52.487	20.776	35.182	-8.232	30.97	0.9072	-0.26361	0.14218	0.29523
21:03:48.562	e1:5b:a6:6b:d9:35	2015-1-1 0:19:42.215	0.323	0.289	0.935	79.163	-57.129	37.231	16.024	-7.712	56.673	3.626	-0.392	-35.868	30.97	0.9072	-0.26361	0.14218	0.29523
21:03:48.651	e1:5b:a6:6b:d9:35	2015-1-1 0:19:42.215	0.327	0.318	0.917	45.227	-45.532	19.043	20.967	-13.508	57.821	3.626	-0.392	-35.868	30.97	0.9072	-0.26361	0.14218	0.29523
21:03:48.770	e1:5b:a6:6b:d9:35	2015-1-1 0:19:42.215	0.333	0.441	0.801	37.048	2.686	-2.319	27.944	-16.122	56.882	3.626	-0.392	-35.868	30.97	0.9072	-0.26361	0.14218	0.29523
21:03:48.861	e1:5b:a6:6b:d9:35	2015-1-1 0:19:42.215	0.362	0.496	0.807	-19.226	4.944	4.7	29.015	-15.101	57.772	3.626	-0.392	-35.868	30.97	0.9072	-0.26361	0.14218	0.29523
21:03:48.980	e1:5b:a6:6b:d9:35	2015-1-1 0:19:42.215	0.379	0.406	0.864	-53.772	-0.671	23.315	24.714	-15.974	59.65	3.626	-0.392	-35.868	30.97	0.9072	-0.26361	0.14218	0.29523
21:03:49.040	e1:5b:a6:6b:d9:35	2015-1-1 0:19:42.215	0.417	0.245	0.887	-129.028	-23.071	65.43	15.76	-18.743	62.682	-4.998	-0.588	-36.358	30.97	0.9072	-0.26361	0.14218	0.29523
21:03:49.162	e1:5b:a6:6b:d9:35	2015-1-1 0:19:42.215	0.453	0.087	0.903	-46.875	0	11.78	6.081	-20.945	64.781	-4.998	-0.588	-36.358	30.97	0.82495	0.13651	-0.12921	0.53293
21:03:49.251	e1:5b:a6:6b:d9:35	2015-1-1 0:19:43.705	0.458	-0.03	0.916	-64.514	-11.841	12.268	-0.797	-22.231	64.902	-4.998	-0.588	-36.358	30.97	0.82495	0.13651	-0.12921	0.53293
21:03:49.371	e1:5b:a6:6b:d9:35	2015-1-1 0:19:43.705	0.413	-0.165	0.873	-91.431	-19.836	15.808	-8.871	-24.142	64.836	-4.998	-0.588	-36.358	30.97	0.82495	0.13651	-0.12921	0.53293
21:03:49.460	e1:5b:a6:6b:d9:35	2015-1-1 0:19:43.705	0.417	-0.287	0.834	-90.393	28.259	-3.113	-16.793	-23.566	62.688	-4.998	-0.588	-36.358	30.97	0.82495	0.13651	-0.12921	0.53293
21:03:49.580	e1:5b:a6:6b:d9:35	2015-1-1 0:19:43.705	0.406	-0.45	0.828	-88.623	24.231	0.488	-26.917	-21.357	60.211	-4.998	30.772	-22.834	30.97	0.82495	0.13651	-0.12921	0.53293
21:03:49.672	e1:5b:a6:6b:d9:35	2015-1-1 0:19:43.705	0.384	-0.596	0.751	-102.173	17.334	10.132	-35.288	-19.512	57.546	-4.998	30.772	-22.834	30.97	0.82495	0.13651	-0.12921	0.53293
21:03:49.762	e1:5b:a6:6b:d9:35	2015-1-1 0:19:43.705	0.297	-0.672	0.67	-81.482	29.053	14.832	-42.852	-17.875	55.234	-4.998	30.772	-22.834	30.97	0.82495	0.13651	-0.12921	0.53293
21:03:49.851	e1:5b:a6:6b:d9:35	2015-1-1 0:19:43.705	0.219	-0.752	0.643	-53.955	7.935	6.653	-47.785	-14.689	51.949	-4.998	30.772	-22.834	30.97	0.82495	0.13651	-0.12921	0.53293
21:03:49.971	e1:5b:a6:6b:d9:35	2015-1-1 0:19:43.705	0.211	-0.811	0.594	-68.481	66.345	5.859	-53.256	-12.431	48.367	-4.998	30.772	-22.834	30.97	0.82495	0.13651	-0.12921	0.53293
21:03:50.061	e1:5b:a6:6b:d9:35	2015-1-1 0:19:43.705	0.205	-0.875	0.453	-62.256	20.935	-10.864	-60.634	-10.745	42.039	-4.998	30.772	-22.834	30.97	0.82495	0.13651	-0.12921	0.53293
21:03:50.181	e1:5b:a6:6b:d9:35	2015-1-1 0:19:43.705	0.114	-0.896	0.395	5.737	22.766	22.644	-63.298	-9.739	39.315	-4.998	30.772	-22.834	30.97	0.82495	0.13651	-0.12921	0.53293
21:03:50.240	e1:5b:a6:6b:d9:35	2015-1-1 0:19:43.705	-0.016	-0.864	0.483	55.908	33.997	54.688	-58.909	-4.889	38.068	-4.998	30.772	-22.834	30.97	0.82495	0.13651	-0.12921	0.53293
21:03:50.390	e1:5b:a6:6b:d9:35	2015-1-1 0:19:44.750	-0.106	-0.848	0.566	48.218	24.536	56.946	-52.449	2.247	37.722	-4.998	30.772	-22.834	30.97	0.82495	0.13651	-0.12921	0.53293
21:03:50.450	e1:5b:a6:6b:d9:35	2015-1-1 0:19:44.750	-0.188	-0.78	0.62	30.518	28.381	45.532	-48.933	7.037	38.249	-4.998	30.772	-22.834	30.97	0.82495	0.13651	-0.12921	0.53293
21:03:50.571	e1:5b:a6:6b:d9:35	2015-1-1 0:19:44.750	-0.263	-0.688	0.696	89.966	11.536	54.443	-43.786	10.311	39.908	21.168	35.672	-6.860	30.97	0.82495	0.13651	-0.12921	0.53293
21:03:50.661	e1:5b:a6:6b:d9:35	2015-1-1 0:19:44.750	-0.318	-0.481	0.798	125.732	18.738	39.185	-30.476	14.952	42.896	21.168	35.672	-6.860	30.97	0.82495	0.13651	-0.12921	0.53293
21:03:50.781	e1:5b:a6:6b:d9:35	2015-1-1 0:19:44.750	-0.433	-0.312	0.934	146.912	53.223	55.786	-16.353	19.402	46.642	21.168	35.672	-6.860	30.97	0.82495	0.13651	-0.12921	0.53293
21:03:50.871	e1:5b:a6:6b:d9:35	2015-1-1 0:19:44.750	-0.447	-0.057	0.931	147.278	36.56	60.791	-1.895	24.51	52.553	21.168	35.672	-6.860	30.97	0.82495	0.13651	-0.12921	0.53293
21:03:50.990	e1:5b:a6:6b:d9:35	2015-1-1 0:19:44.750	-0.409	0.257	0.872	140.564	7.202	77.087	12.601	25.928	60.656	21.168	35.672	-6.860	30.97	0.82495	0.13651	-0.12921	0.53293
21:03:51.052	e1:5b:a6:6b:d9:35	2015-1-1 0:19:44.750	-0.328	0.425	0.861	67.932	-31.372	60.181	23.467	22.961	68.434	21.168	35.672	-6.860	30.97	0.82495	0.13651	-0.12921	0.53293
21:03:51.172	e1:5b:a6:6b:d9:35	2015-1-1 0:19:44.750	-0.224	0.517	0.803	23.254	-26.306	40.71	28.834	18.787	73.784	34.496	-13.622	-19.796	30.97	0.77869	0.11627	0.2691	0.55463
21:03:51.262	e1:5b:a6:6b:d9:35	2015-1-1 0:19:44.750	-0.2	0.555	0.778	13.306	-16.785	40.527	31.844	13.931	77.97	34.496	-13.622	-19.796	30.97	0.77869	0.11627	0.2691	0.55463
21:03:51.382	e1:5b:a6:6b:d9:35	2015-1-1 0:19:45.730	-0.154	0.694	0.714	56.58	-18.005	58.411	37.914	9.591	83.699	34.496	-13.622	-19.796	30.97	0.77869	0.11627	0.2691	0.55463
21:03:51.471	e1:5b:a6:6b:d9:35	2015-1-1 0:19:45.730	-0.201	0.654	0.766	-30.396	18.127	-13.367	37.172	8.789	86.814	34.496	-13.622	-19.796	30.97	0.77869	0.11627	0.2691	0.55463
21:03:51.591	e1:5b:a6:6b:d9:35	2015-1-1 0:19:45.730	-0.246	0.594	0.779	-41.443	22.461	-36.804	34.135	11.7	87.44	27.930	-25.578	-21.168	30.97	0.77869	0.11627	0.2691	0.55463
21:03:51.651	e1:5b:a6:6b:d9:35	2015-1-1 0:19:45.730	-0.281	0.551	0.809	-11.597	0.977	-24.536	31.234	14.37	86.512	27.930	-25.578	-21.168	30.97	0.77869	0.11627	0.2691	0.55463
21:03:51.800	e1:5b:a6:6b:d9:35	2015-1-1 0:19:46.240	-0.33	0.509	0.816	-8.85	-2.563	-31.128	29.355	16.095	84.93	27.930	-25.578	-21.168	30.97	0.7243	0.10275	0.27029	0.62582
21:03:51.861	e1:5b:a6:6b:d9:35	2015-1-1 0:19:46.240	-0.381	0.451	0.823	-44.678	14.771	-92.285	26.252	18.847	81.222	27.930	-25.578	-21.168	30.97	0.7243	0.10275	0.27029	0.62582
21:03:51.981	e1:5b:a6:6b:d9:35	2015-1-1 0:19:46.240	-0.393	0.31	0.852	-96.008	-13.245	-80.139	17.397	22.637	74.015	27.930	-25.578	-21.168	30.97	0.7243	0.10275	0.27029	0.62582
21:03:52.071	e1:5b:a6:6b:d9:35	2015-1-1 0:19:46.240	-0.382	0.105	0.912	-79.529	-21.545	-84.595	6.323	22.308	65.808	27.930	-25.578	-21.168	30.97	0.7243	0.10275	0.27029	0.62582
21:03:52.191	e1:5b:a6:6b:d9:35	2015-1-1 0:19:46.240	-0.306	-0.052	0.915	-99.487	-33.386	-90.576	-4.263	21.467	56.602	31.556	4.410	-22.540	30.97	0.87598	-0.15186	0.10858	0.44461
21:03:52.280	e1:5b:a6:6b:d9:35	2015-1-1 0:19:46.240	-0.204	-0.244	0.918	-82.092	-40.588	-68.237	-14.518	16.721	49.043	31.556	4.410	-22.540	30.97	0.87598	-0.15186	0.10858	0.44461
21:03:52.402	e1:5b:a6:6b:d9:35	2015-1-1 0:19:46.745	-0.135	-0.382	0.89	-76.233	-37.964	-54.565	-22.544	10.992	43.781	31.556	4.410	-22.540	30.97	0.87598	-0.15186	0.10858	0.44461
21:03:52.462	e1:5b:a6:6b:d9:35	2015-1-1 0:19:46.745	-0.129	-0.499	0.85	-42.419	12.817	-52.246	-28.076	8.047	38.837	31.556	4.410	-22.540	30.97	0.87598	-0.15186	0.10858	0.44461
21:03:52.581	e1:5b:a6:6b:d9:35	2015-1-1 0:19:46.745	-0.18	-0.55	0.83	-31.799	30.762	-41.443	-32.877	7.174	31.998	31.556	4.410	-22.540	30.97	0.87598	-0.15186	0.10858	0.44461
21:03:52.671	e1:5b:a6:6b:d9:35	2015-1-1 0:19:46.745	-0.228	-0.631	0.797	-21.545	39.307	-21.667	-36.101	10.124	25.593	11.074	38.122	-10.682	30.97	0.87598	-0.15186	0.10858	0.44461
21:03:52.791	e1:5b:a6:6b:d9:35	2015-1-1 0:19:46.745	-0.33	-0.623	0.771	0.366	47.668	35.034	-37.798	13.326	22.088	11.074	38.122	-10.682	30.97	0.91714	-0.3313	0.02866	0.21945
21:03:52.881	e1:5b:a6:6b:d9:35	2015-1-1 0:19:47.250	-0.438	-0.628	0.73	2.258	58.777	21.179	-38.392	19.254	19.858	11.074	38.122	-10.682	30.97	0.91714	-0.3313	0.02866	0.21945
21:03:53.000	e1:5b:a6:6b:d9:35	2015-1-1 0:19:47.250	-0.594	-0.575	0.692	-4.761	66.162	16.296	-39.034	25.483	17.496	11.074	38.122	-10.682	30.97	0.91714	-0.3313	0.02866	0.21945
21:03:53.060	e1:5b:a6:6b:d9:35	2015-1-1 0:19:47.250	-0.75	-0.528	0.646	33.447	71.594	77.454	-36.92	33.552	17.38	11.074	38.122	-10.682	30.97	0.91714	-0.3313	0.02866	0.21945
21:03:53.180	e1:5b:a6:6b:d9:35	2015-1-1 0:19:47.250	-0.836	-0.357	0.576	33.508	78.491	143.982	-28.663	47.203	25.34	27.538	34.104	-0.294	30.97	0.91714	-0.3313	0.02866	0.21945
21:03:53.270	e1:5b:a6:6b:d9:35	2015-1-1 0:19:47.250	-0.849	-0.249	0.552	2.319	26.855	48.706	-21.72	53.91	34.404	27.538	34.104	-0.294	30.97	0.81857	-0.29361	0.36682	0.3302
21:03:53.390	e1:5b:a6:6b:d9:35	2015-1-1 0:19:47.755	-0.879	-0.134	0.5	26.245	10.681	61.707	-11.942	57.079	44.918	27.538	34.104	-0.294	30.97	0.81857	-0.29361	0.36682	0.3302
21:03:53.481	e1:5b:a6:6b:d9:35	2015-1-1 0:19:47.755	-0.903	0.033	0.52	69.153	20.874	111.023	4.142	58.568	59.974	27.538	34.104	-0.294	30.97	0.81857	-0.29361	0.36682	0.3302
21:03:53.601	e1:5b:a6:6b:d9:35	2015-1-1 0:19:47.755	-0.877	0.175	0.464	41.26	29.785	57.861	18.089	60.183	72.664	27.538	34.104	-0.294	30.97	0.81857	-0.29361	0.36682	0.3302
21:03:53.692	e1:5b:a6:6b:d9:35	2015-1-1 0:19:47.755	-0.836	0.307	0.383	24.536	10.437	49.438	34.08	59.409	87.561	47.726	1.176	6.664	30.97	0.81857	-0.29361	0.36682	0.3302
21:03:53.810	e1:5b:a6:6b:d9:35	2015-1-1 0:19:47.755	-0.844	0.378	0.342	12.024	5.066	29.236	40.633	58.239	94.521	47.726	1.176	6.664	30.97	0.68521	-0.13321	0.52869	0.48285
21:03:53.870	e1:5b:a6:6b:d9:35	2015-1-1 0:19:48.265	-0.836	0.396	0.347	-0.061	0.549	9.705	43.204	57.349	98.212	47.726	1.176	6.664	30.97	0.68521	-0.13321	0.52869	0.48285
21:03:53.992	e1:5b:a6:6b:d9:35	2015-1-1 0:19:48.265	-0.846	0.417	0.341	3.357	0.977	5.432	44.698	56.882	100.459	47.726	1.176	6.664	30.97	0.68521	-0.13321	0.52869	0.48285
21:03:54.081	e1:5b:a6:6b:d9:35	2015-1-1 0:19:48.265	-0.87	0.417	0.352	-1.465	-1.709	-0.793	44.703	56.733	101.343	47.726	1.176	6.664	30.97	0.68521	-0.13321	0.52869	0.48285
21:03:54.200	e1:5b:a6:6b:d9:35	2015-1-1 0:19:48.265	-0.848	0.428	0.371	2.197	-1.526	2.075	44.308	56.613	101.722	48.118	-9.310	8.624	30.97	0.68521	-0.13321	0.52869	0.48285
21:03:54.292	e1:5b:a6:6b:d9:35	2015-1-1 0:19:48.265	-0.828	0.426	0.362	-3.479	-3.54	-0.488	44.583	56.442	102.535	48.118	-9.310	8.624	30.97	0.68521	-0.13321	0.52869	0.48285
21:03:54.412	e1:5b:a6:6b:d9:35	2015-1-1 0:19:48.265	-0.821	0.417	0.355	-1.465	-2.625	0.183	44.692	56.288	103.184	48.118	-9.310	8.624	30.97	0.68521	-0.13321	0.52869	0.48285
21:03:54.501	e1:5b:a6:6b:d9:35	2015-1-1 0:19:48.265	-0.829	0.411	0.358	4.272	1.77	3.479	44.945	56.184	103.914	48.118	-9.310	8.624	30.97	0.68521	-0.13321	0.52869	0.48285
21:03:54.591	e1:5b:a6:6b:d9:35	2015-1-1 0:19:48.265	-0.832	0.424	0.361	-1.038	-0.671	-0.366	45.28	56.223	104.667	48.118	-9.310	8.624	30.97	0.68521	-0.13321	0.52869	0.48285
21:03:54.681	e1:5b:a6:6b:d9:35	2015-1-1 0:19:48.265	-0.827	0.424	0.363	-1.221	-1.343	-1.038	45.357	56.266	105.189	47.922	-9.604	7.938	30.97	0.68521	-0.13321	0.52869	0.48285
21:03:54.801	e1:5b:a6:6b:d9:35	2015-1-1 0:19:48.265	-0.831	0.418	0.362	0	0.793	-0.061	45.187	56.321	105.54	47.922	-9.604	7.938	30.97	0.63721	-0.14163	0.5332	0.53802
21:03:54.892	e1:5b:a6:6b:d9:35	2015-1-1 0:19:49.275	-0.831	0.412	0.369	-2.38	-0.244	-4.639	45.049	56.415	105.815	47.922	-9.604	7.938	30.97	0.63721	-0.14163	0.5332	0.53802
21:03:55.040	e1:5b:a6:6b:d9:35	2015-1-1 0:19:49.275	-0.839	0.407	0.371	-0.183	-1.404	-3.235	44.703	56.635	105.859	47.922	-9.604	7.938	30.97	0.63721	-0.14163	0.5332	0.53802
21:03:55.102	e1:5b:a6:6b:d9:35	2015-1-1 0:19:49.275	-0.834	0.407	0.375	-1.587	-1.282	-5.066	44.127	56.827	105.584	47.922	-9.604	7.938	30.97	0.63721	-0.14163	0.5332	0.53802
21:03:55.222	e1:5b:a6:6b:d9:35	2015-1-1 0:19:49.275	-0.834	0.395	0.374	-1.892	-1.343	-4.395	43.599	57.003	105.359	48.020	-8.134	7.252	30.97	0.63721	-0.14163	0.5332	0.53802
21:03:55.282	e1:5b:a6:6b:d9:35	2015-1-1 0:19:49.275	-0.82	0.385	0.378	-2.258	-3.052	-5.981	43.017	57.145	105.073	48.020	-8.134	7.252	30.97	0.63721	-0.14163	0.5332	0.53802
21:03:55.401	e1:5b:a6:6b:d9:35	2015-1-1 0:19:49.275	-0.881	0.344	0.374	-27.405	-17.395	-46.692	38.37	57.799	101.173	48.020	-8.134	7.252	30.97	0.63721	-0.14163	0.5332	0.53802
21:03:55.491	e1:5b:a6:6b:d9:35	2015-1-1 0:19:49.275	-0.845	0.235	0.469	-30.579	-28.992	-47.119	25.67	58.475	90.297	48.020	-8.134	7.252	30.97	0.63721	-0.14163	0.5332	0.53802
21:03:55.612	e1:5b:a6:6b:d9:35	2015-1-1 0:19:49.275	-0.872	0.125	0.519	-34.729	-37.659	-59.082	12.145	57.019	78.415	48.020	-8.134	7.252	30.97	0.63721	-0.14163	0.5332	0.53802
21:03:55.701	e1:5b:a6:6b:d9:35	2015-1-1 0:19:49.275	-0.738	-0.002	0.632	-27.161	-31.128	-67.871	-1.34	54.102	65.352	43.120	12.642	-0.882	30.97	0.63721	-0.14163	0.5332	0.53802
21:03:55.821	e1:5b:a6:6b:d9:35	2015-1-1 0:19:49.275	-0.685	-0.116	0.612	5.798	-31.372	-68.298	-9.553	50.812	55.629	43.120	12.642	-0.882	30.97	0.77942	-0.26602	0.34305	0.4516
21:03:55.881	e1:5b:a6:6b:d9:35	2015-1-1 0:19:49.275	-0.621	-0.19	0.649	-22.217	-83.801	-37.781	-15.551	44.171	49.12	43.120	12.642	-0.882	30.97	0.77942	-0.26602	0.34305	0.4516
21:03:56.031	e1:5b:a6:6b:d9:35	2015-1-1 0:19:49.275	-0.532	-0.227	0.826	1.953	-86.731	-30.762	-17.704	34.948	46.093	43.120	12.642	-0.882	30.97	0.77942	-0.26602	0.34305	0.4516
21:03:56.091	e1:5b:a6:6b:d9:35	2015-1-1 0:19:49.275	-0.375	-0.259	0.766	-12.39	-36.987	-33.142	-17.88	29.658	45.72	43.120	12.642	-0.882	30.97	0.77942	-0.26602	0.34305	0.4516
21:03:56.211	e1:5b:a6:6b:d9:35	2015-1-1 0:19:49.275	-0.246	-0.321	0.881	1.953	-51.819	-31.128	-17.523	22.874	43.511	24.010	27.244	-16.072	30.97	0.77942	-0.26602	0.34305	0.4516
21:03:56.301	e1:5b:a6:6b:d9:35	2015-1-1 0:19:49.275	-0.173	-0.302	0.98	5.371	-67.932	-16.113	-16.232	14.843	41.979	24.010	27.244	-16.072	30.97	0.77942	-0.26602	0.34305	0.4516
21:03:56.421	e1:5b:a6:6b:d9:35	2015-1-1 0:19:49.275	-0.166	-0.246	0.977	19.531	-5.249	15.198	-14.727	12.623	41.309	24.010	27.244	-16.072	30.97	0.77942	-0.26602	0.34305	0.4516
21:03:56.511	e1:5b:a6:6b:d9:35	2015-1-1 0:19:49.275	-0.18	-0.176	0.976	35.461	5.615	11.841	-11.245	12.2	41.88	24.010	27.244	-16.072	30.97	0.77942	-0.26602	0.34305	0.4516
21:03:56.662	e1:5b:a6:6b:d9:35	2015-1-1 0:19:49.275	-0.18	-0.136	0.971	39.001	6.897	19.897	-7.526	13.228	42.446	24.010	27.244	-16.072	30.97	0.77942	-0.26602	0.34305	0.4516
21:03:56.692	e1:5b:a6:6b:d9:35	2015-1-1 0:19:49.275	-0.162	-0.076	0.96	27.161	-12.573	9.155	-4.894	12.733	43.171	16.170	18.620	-27.832	30.97	0.77942	-0.26602	0.34305	0.4516
21:03:56.811	e1:5b:a6:6b:d9:35	2015-1-1 0:19:49.275	-0.153	-0.054	0.979	10.132	-9.338	10.742	-2.999	11.541	43.819	16.170	18.620	-27.832	30.97	0.92166	-0.05997	0.08292	0.37415
21:03:57.202	e1:5b:a6:6b:d9:35	2015-1-1 0:19:51.305	-0.153	-0.069	1.014	4.395	-4.578	10.132	-2.153	10.75	44.286	16.170	18.620	-27.832	30.97	0.92166	-0.05997	0.08292	0.37415
21:03:57.202	e1:5b:a6:6b:d9:35	2015-1-1 0:19:51.305	-0.126	-0.032	0.988	2.991	-6.287	5.249	-1.664	10.448	44.604	16.170	18.620	-27.832	30.97	0.92166	-0.05997	0.08292	0.37415
21:03:57.202	e1:5b:a6:6b:d9:35	2015-1-1 0:19:51.305	-0.124	-0.032	0.969	-0.977	-15.991	0.732	-1.615	9.404	44.451	16.170	18.620	-27.832	30.97	0.92166	-0.05997	0.08292	0.37415
21:03:57.232	e1:5b:a6:6b:d9:35	2015-1-1 0:19:51.305	-0.085	-0.009	1.006	-5.493	-12.329	-15.137	-1.901	8.026	43.462	16.170	18.620	-27.832	30.97	0.92166	-0.05997	0.08292	0.37415
21:03:57.321	e1:5b:a6:6b:d9:35	2015-1-1 0:19:51.305	-0.064	-0.042	0.992	-3.052	-4.272	-9.644	-2.054	7.136	41.754	16.170	18.620	-27.832	30.97	0.92166	-0.05997	0.08292	0.37415
21:03:57.441	e1:5b:a6:6b:d9:35	2015-1-1 0:19:51.305	-0.064	-0.054	1.009	-12.268	-13.611	-13.306	-3.224	5.603	40.402	16.170	18.620	-27.832	30.97	0.92166	-0.05997	0.08292	0.37415
21:03:57.530	e1:5b:a6:6b:d9:35	2015-1-1 0:19:51.305	-0.039	-0.038	0.992	-0.244	-2.441	-2.319	-3.884	4.845	39.04	16.170	18.620	-27.832	30.97	0.92166	-0.05997	0.08292	0.37415
21:03:57.652	e1:5b:a6:6b:d9:35	2015-1-1 0:19:51.305	-0.052	-0.093	1.005	-8.728	-5.432	-20.508	-4.329	4.197	37.441	16.170	18.620	-27.832	30.97	0.92166	-0.05997	0.08292	0.37415
21:03:57.712	e1:5b:a6:6b:d9:35	2015-1-1 0:19:51.305	-0.051	-0.068	1.001	4.517	4.089	-17.761	-4.724	3.647	35.008	8.918	19.110	-30.282	30.97	0.92166	-0.05997	0.08292	0.37415
21:03:57.832	e1:5b:a6:6b:d9:35	2015-1-1 0:19:51.305	-0.062	-0.071	1.015	7.08	-3.113	-1.77	-4.323	4.18	32.492	8.918	19.110	-30.282	30.97	0.95877	-0.04504	0.02414	0.27936
21:03:57.921	e1:5b:a6:6b:d9:35	2015-1-1 0:19:52.345	-0.034	-0.054	1.014	16.174	-0.488	0.549	-3.395	3.862	31.893	8.918	19.110	-30.282	30.97	0.95877	-0.04504	0.02414	0.27936
21:03:58.042	e1:5b:a6:6b:d9:35	2015-1-1 0:19:52.345	-0.038	-0.029	1.015	12.573	-4.761	1.282	-2.208	3.56	31.267	8.918	19.110	-30.282	30.97	0.95877	-0.04504	0.02414	0.27936
21:03:58.102	e1:5b:a6:6b:d9:35	2015-1-1 0:19:52.345	-0.032	-0.018	1.01	5.676	-1.404	-2.136	-1.505	3.362	30.707	8.918	19.110	-30.282	30.97	0.95877	-0.04504	0.02414	0.27936
21:03:58.222	e1:5b:a6:6b:d9:35	2015-1-1 0:19:52.345	-0.021	-0.011	1.005	0.427	-3.723	-1.038	-1.329	3.065	30.234	7.840	16.660	-31.654	30.97	0.95877	-0.04504	0.02414	0.27936
21:03:58.311	e1:5b:a6:6b:d9:35	2015-1-1 0:19:52.345	-0.008	-0.015	1.006	0.61	-4.272	-3.479	-1.236	2.51	29.603	7.840	16.660	-31.654	30.97	0.96719	-0.01498	0.01706	0.25281
21:03:58.430	e1:5b:a6:6b:d9:35	2015-1-1 0:19:52.820	-0.001	-0.01	1.006	8.362	-8.362	-14.038	-0.895	1.813	28.147	7.840	16.660	-31.654	30.97	0.96719	-0.01498	0.01706	0.25281
21:03:58.522	e1:5b:a6:6b:d9:35	2015-1-1 0:19:52.820	0.002	0.002	1	2.93	-3.54	-12.817	-0.324	1.225	26.395	7.840	16.660	-31.654	30.97	0.96719	-0.01498	0.01706	0.25281
21:03:58.641	e1:5b:a6:6b:d9:35	2015-1-1 0:19:52.820	0.02	0.008	1.003	-3.906	-3.174	-6.653	-0.406	0.84	25.197	7.840	16.660	-31.654	30.97	0.96719	-0.01498	0.01706	0.25281
21:03:58.701	e1:5b:a6:6b:d9:35	2015-1-1 0:19:52.820	-0.013	0.003	1.005	-10.01	-1.892	-8.484	-0.994	0.456	23.945	7.840	16.660	-31.654	30.97	0.96719	-0.01498	0.01706	0.25281
21:03:58.851	e1:5b:a6:6b:d9:35	2015-1-1 0:19:52.820	0.008	-0.041	1.001	-1.892	1.282	-13.428	-1.906	0.994	21.956	4.704	17.052	-31.948	30.97	0.98245	-0.01669	0.00439	0.18542
21:03:58.911	e1:5b:a6:6b:d9:35	2015-1-1 0:19:52.820	0	-0.014	1.006	4.395	1.892	-5.493	-1.395	0.676	20.687	4.704	17.052	-31.948	30.97	0.98245	-0.01669	0.00439	0.18542
21:03:59.031	e1:5b:a6:6b:d9:35	2015-1-1 0:19:52.820	0.002	-0.005	1.007	1.282	0.061	-0.916	-0.978	0.709	20.05	4.704	17.052	-31.948	31.08	0.98245	-0.01669	0.00439	0.18542
21:03:59.120	e1:5b:a6:6b:d9:35	2015-1-1 0:19:53.535	0.002	-0.005	1.006	-0.305	0	-0.427	-0.901	0.665	19.6	4.704	17.052	-31.948	31.08	0.98245	-0.01669	0.00439	0.18542
21:03:59.242	e1:5b:a6:6b:d9:35	2015-1-1 0:19:53.535	0.001	-0.001	1.007	0.732	0.122	0	-0.764	0.632	19.171	4.704	17.052	-31.948	31.08	0.98245	-0.01669	0.00439	0.18542
21:03:59.332	e1:5b:a6:6b:d9:35	2015-1-1 0:19:53.535	0.002	-0.002	1.006	0.183	0.122	-0.061	-0.725	0.593	18.825	4.704	17.052	-31.948	31.08	0.98245	-0.01669	0.00439	0.18542
21:03:59.451	e1:5b:a6:6b:d9:35	2015-1-1 0:19:53.535	0.002	0	1.006	-1.282	0.061	-4.761	-0.709	0.549	18.413	3.920	17.150	-32.144	31.08	0.98245	-0.01669	0.00439	0.18542
21:03:59.511	e1:5b:a6:6b:d9:35	2015-1-1 0:19:53.535	0	-0.007	1.004	-0.366	0.305	-1.343	-0.764	0.571	17.661	3.920	17.150	-32.144	31.08	0.98245	-0.01669	0.00439	0.18542
21:03:59.631	e1:5b:a6:6b:d9:35	2015-1-1 0:19:54.045	-0.006	-0.003	1.006	-3.967	2.258	-11.963	-0.747	0.593	17.106	3.920	17.150	-32.144	31.08	0.98837	-0.00732	0.00397	0.15143
21:03:59.721	e1:5b:a6:6b:d9:35	2015-1-1 0:19:54.045	-0.006	0	1.006	0	0.061	0.122	-0.538	0.89	16.122	3.920	17.150	-32.144	31.08	0.98837	-0.00732	0.00397	0.15143
21:03:59.841	e1:5b:a6:6b:d9:35	2015-1-1 0:19:54.045	-0.005	0	1.006	-0.061	0.061	0	-0.522	0.857	15.886	3.920	17.150	-32.144	31.08	0.98837	-0.00732	0.00397	0.15143
21:03:59.961	e1:5b:a6:6b:d9:35	2015-1-1 0:19:54.045	-0.006	0	1.006	-0.122	0.061	0	-0.5	0.824	15.639	3.724	17.150	-32.144	31.08	0.98837	-0.00732	0.00397	0.15143
21:04:00.051	e1:5b:a6:6b:d9:35	2015-1-1 0:19:54.045	-0.006	0	1.006	-0.122	0.061	0	-0.489	0.802	15.419	3.724	17.150	-32.144	31.08	0.99097	-0.00513	0.00635	0.13361
21:04:00.141	e1:5b:a6:6b:d9:35	2015-1-1 0:19:54.045	-0.005	0	1.005	-0.122	0.061	0	-0.472	0.78	15.205	3.724	17.150	-32.144	31.08	0.99097	-0.00513	0.00635	0.13361
21:04:00.261	e1:5b:a6:6b:d9:35	2015-1-1 0:19:54.045	-0.005	0	1.006	-0.122	0.061	0	-0.461	0.758	15.002	3.724	17.150	-32.144	31.08	0.99097	-0.00513	0.00635	0.13361
21:04:00.321	e1:5b:a6:6b:d9:35	2015-1-1 0:19:54.045	-0.006	0	1.006	-0.122	0.061	0	-0.45	0.742	14.799	3.724	17.150	-32.144	31.08	0.99097	-0.00513	0.00635	0.13361
21:04:00.441	e1:5b:a6:6b:d9:35	2015-1-1 0:19:54.045	-0.006	-0.001	1.006	-0.488	0.061	0.366	-0.445	0.72	14.601	3.822	17.150	-32.144	31.08	0.99097	-0.00513	0.00635	0.13361
21:04:00.530	e1:5b:a6:6b:d9:35	2015-1-1 0:19:54.045	-0.005	0	1.006	-0.122	0	0.122	-0.439	0.703	14.54	3.822	17.150	-32.144	31.08	0.99097	-0.00513	0.00635	0.13361
21:04:00.651	e1:5b:a6:6b:d9:35	2015-1-1 0:19:55.055	-0.006	-0.001	1.006	-0.122	0.061	4.761	-0.417	0.681	14.557	3.822	17.150	-32.144	31.08	0.99194	-0.00446	0.00552	0.12613
21:04:00.741	e1:5b:a6:6b:d9:35	2015-1-1 0:19:55.055	-0.004	0.003	1.006	-0.061	0	13.794	-0.406	0.676	15.436	3.822	17.150	-32.144	31.08	0.99194	-0.00446	0.00552	0.12613
21:04:00.860	e1:5b:a6:6b:d9:35	2015-1-1 0:19:55.055	-0.007	0	1.007	-1.77	0.366	-0.305	-0.428	0.665	15.397	3.822	17.150	-32.144	31.08	0.99194	-0.00446	0.00552	0.12613
21:04:00.920	e1:5b:a6:6b:d9:35	2015-1-1 0:19:55.055	-0.003	-0.01	1.014	-10.864	-2.197	3.296	-1.11	0.467	15.694	3.822	17.150	-32.144	31.08	0.99194	-0.00446	0.00552	0.12613
21:04:01.041	e1:5b:a6:6b:d9:35	2015-1-1 0:19:55.055	0.006	-0.031	1.001	-29.297	-0.122	5.127	-2.856	0.461	16.013	4.214	17.738	-31.752	31.08	0.99194	-0.00446	0.00552	0.12613
21:04:01.132	e1:5b:a6:6b:d9:35	2015-1-1 0:19:55.055	-0.004	-0.089	0.995	-35.095	0.244	2.991	-5.427	0.461	15.98	4.214	17.738	-31.752	31.08	0.99194	-0.00446	0.00552	0.12613
21:04:01.251	e1:5b:a6:6b:d9:35	2015-1-1 0:19:55.055	-0.001	-0.1	1.01	5.554	-0.122	2.869	-6.103	0.456	16.024	4.214	17.738	-31.752	31.08	0.99194	-0.00446	0.00552	0.12613
21:04:01.341	e1:5b:a6:6b:d9:35	2015-1-1 0:19:55.055	0	-0.109	1.002	1.16	0	1.648	-6.103	0.445	15.925	4.214	17.738	-31.752	31.08	0.99194	-0.00446	0.00552	0.12613
21:04:01.461	e1:5b:a6:6b:d9:35	2015-1-1 0:19:55.055	-0.025	-0.112	0.992	-0.427	0	1.038	-6.092	0.439	15.864	4.508	21.070	-29.988	31.08	0.99194	-0.00446	0.00552	0.12613
21:04:01.521	e1:5b:a6:6b:d9:35	2015-1-1 0:19:55.055	-0.018	-0.082	0.996	58.777	-0.854	10.376	-3.285	0.412	16.447	4.508	21.070	-29.988	31.08	0.99194	-0.00446	0.00552	0.12613
21:04:01.671	e1:5b:a6:6b:d9:35	2015-1-1 0:19:55.055	0.009	0.007	1.042	34.546	1.16	3.784	0.038	0.527	16.672	4.508	21.070	-29.988	31.08	0.98944	-0.00598	0.0036	0.14441
21:04:01.731	e1:5b:a6:6b:d9:35	2015-1-1 0:19:55.055	0	0.049	1.013	35.583	0.61	12.085	2.84	0.615	17.281	4.508	21.070	-29.988	31.08	0.98944	-0.00598	0.0036	0.14441
21:04:01.851	e1:5b:a6:6b:d9:35	2015-1-1 0:19:55.055	-0.008	0.121	0.974	24.231	0.671	6.042	5.57	0.626	18.232	4.508	21.070	-29.988	31.08	0.98944	-0.00598	0.0036	0.14441
21:04:01.940	e1:5b:a6:6b:d9:35	2015-1-1 0:19:55.055	-0.012	0.127	0.982	-22.095	-0.244	1.953	5.762	0.599	18.545	4.508	21.070	-29.988	31.08	0.98944	-0.00598	0.0036	0.14441
21:04:02.060	e1:5b:a6:6b:d9:35	2015-1-1 0:19:55.055	-0.007	0.005	1.054	-44.373	2.014	-1.343	0.791	0.428	18.495	5.586	12.740	-33.418	31.08	0.98944	-0.00598	0.0036	0.14441
21:04:02.152	e1:5b:a6:6b:d9:35	2015-1-1 0:19:55.055	-0.002	-0.001	1.017	-9.277	-1.648	-1.892	-0.659	0.456	18.386	5.586	12.740	-33.418	31.08	0.98691	-0.00269	0.00247	0.16086
21:04:02.272	e1:5b:a6:6b:d9:35	2015-1-1 0:19:56.575	-0.004	-0.028	1.005	-2.014	0	0.061	-1.555	0.423	18.094	5.586	12.740	-33.418	31.08	0.98691	-0.00269	0.00247	0.16086
21:04:02.331	e1:5b:a6:6b:d9:35	2015-1-1 0:19:56.575	-0.005	-0.021	1.005	10.62	0.061	4.7	-1.11	0.412	18.259	5.586	12.740	-33.418	31.08	0.98691	-0.00269	0.00247	0.16086
21:04:02.451	e1:5b:a6:6b:d9:35	2015-1-1 0:19:56.575	-0.004	-0.009	1.005	8.118	1.709	2.686	-0.363	0.522	18.419	5.586	12.740	-33.418	31.08	0.98691	-0.00269	0.00247	0.16086
21:04:02.541	e1:5b:a6:6b:d9:35	2015-1-1 0:19:56.575	-0.003	0	1.007	0.366	-0.366	0	0.038	0.516	18.528	5.586	12.740	-33.418	31.08	0.98691	-0.00269	0.00247	0.16086
21:04:02.661	e1:5b:a6:6b:d9:35	2015-1-1 0:19:56.575	-0.003	0.001	1.005	0.244	-0.244	-0.061	0.044	0.478	18.517	5.586	12.740	-33.418	31.08	0.98691	-0.00269	0.00247	0.16086
21:04:02.750	e1:5b:a6:6b:d9:35	2015-1-1 0:19:57.080	-0.004	0.002	1.006	-0.549	0	-0.122	0.06	0.461	18.501	5.586	12.740	-33.418	31.08	0.98691	-0.00269	0.00247	0.16086
21:04:02.872	e1:5b:a6:6b:d9:35	2015-1-1 0:19:57.080	-0.003	0.002	1.006	0	0	0	0.044	0.45	18.484	5.586	12.740	-33.418	31.08	0.98691	-0.00269	0.00247	0.16086
21:04:02.932	e1:5b:a6:6b:d9:35	2015-1-1 0:19:57.080	-0.004	0.001	1.006	-0.244	0.061	-1.282	0.011	0.439	18.419	5.586	12.740	-33.418	31.08	0.98691	-0.00269	0.00247	0.16086
21:04:03.080	e1:5b:a6:6b:d9:35	2015-1-1 0:19:57.080	-0.004	0.001	1.006	-0.244	0	-1.343	0	0.434	18.287	5.488	16.366	-32.144	31.08	0.98691	-0.00269	0.00247	0.16086
21:04:03.141	e1:5b:a6:6b:d9:35	2015-1-1 0:19:57.080	-0.003	0.001	1.006	-0.305	0	-0.366	-0.016	0.423	18.232	5.488	16.366	-32.144	31.08	0.98691	-0.00269	0.00247	0.16086
21:04:03.260	e1:5b:a6:6b:d9:35	2015-1-1 0:19:57.080	-0.004	0.001	1.006	0	0	-0.122	-0.022	0.412	18.21	5.488	16.366	-32.144	31.08	0.98691	-0.00269	0.00247	0.16086
21:04:03.350	e1:5b:a6:6b:d9:35	2015-1-1 0:19:57.080	-0.005	0	1.006	0	0	0	-0.027	0.406	18.16	5.488	16.366	-32.144	31.08	0.98691	-0.00269	0.00247	0.16086
21:04:03.472	e1:5b:a6:6b:d9:35	2015-1-1 0:19:57.080	-0.004	0.001	1.005	-0.122	0	-0.244	-0.033	0.401	18.144	5.488	16.366	-32.144	31.08	0.98691	-0.00269	0.00247	0.16086
21:04:03.561	e1:5b:a6:6b:d9:35	2015-1-1 0:19:57.080	-0.004	0.001	1.005	-0.122	0	-0.061	-0.038	0.39	18.122	5.488	16.366	-32.144	31.08	0.98691	-0.00269	0.00247	0.16086
21:04:03.681	e1:5b:a6:6b:d9:35	2015-1-1 0:19:57.080	-0.004	0.001	1.006	-0.122	0	0	-0.038	0.379	18.1	5.488	16.366	-32.144	31.08	0.98691	-0.00269	0.00247	0.16086
21:04:03.741	e1:5b:a6:6b:d9:35	2015-1-1 0:19:57.080	-0.004	0.001	1.006	-0.061	0	-0.183	-0.049	0.374	18.083	5.488	16.366	-32.144	31.08	0.98691	-0.00269	0.00247	0.16086
21:04:03.861	e1:5b:a6:6b:d9:35	2015-1-1 0:19:57.080	-0.004	0.001	1.006	-0.122	0	0	-0.055	0.368	18.045	5.488	16.366	-32.144	31.08	0.98691	-0.00269	0.00247	0.16086
21:04:03.950	e1:5b:a6:6b:d9:35	2015-1-1 0:19:57.080	-0.003	0.001	1.006	-0.122	0	0	-0.055	0.363	18.04	5.488	16.366	-32.144	31.08	0.98691	-0.00269	0.00247	0.16086
21:04:04.071	e1:5b:a6:6b:d9:35	2015-1-1 0:19:57.080	-0.004	0.001	1.005	-0.122	0	0	-0.066	0.352	18.04	5.488	16.464	-32.046	31.08	0.98691	-0.00269	0.00247	0.16086
21:04:04.160	e1:5b:a6:6b:d9:35	2015-1-1 0:19:57.080	-0.003	0.001	1.005	-0.183	0.061	0	-0.066	0.352	18.056	5.488	16.464	-32.046	31.08	0.98755	-0.00104	0.00293	0.15692
21:04:04.280	e1:5b:a6:6b:d9:35	2015-1-1 0:19:58.630	-0.004	0.001	1.006	-0.183	0.061	0	-0.071	0.346	18.073	5.488	16.464	-32.046	31.08	0.98755	-0.00104	0.00293	0.15692
21:04:04.342	e1:5b:a6:6b:d9:35	2015-1-1 0:19:58.630	-0.004	0	1.005	-0.122	0	0	-0.071	0.341	18.089	5.488	16.464	-32.046	31.08	0.98755	-0.00104	0.00293	0.15692
21:04:04.492	e1:5b:a6:6b:d9:35	2015-1-1 0:19:58.630	-0.004	0.001	1.006	-0.122	0.061	0	-0.077	0.335	18.1	5.488	16.464	-32.046	31.08	0.98755	-0.00104	0.00293	0.15692
21:04:04.552	e1:5b:a6:6b:d9:35	2015-1-1 0:19:58.630	-0.004	0.001	1.006	0	0.061	0	-0.077	0.33	18.116	5.488	16.464	-32.046	31.08	0.98755	-0.00104	0.00293	0.15692
21:04:04.701	e1:5b:a6:6b:d9:35	2015-1-1 0:19:58.630	-0.003	0.001	1.005	-0.122	0	0	-0.077	0.33	18.127	5.488	16.464	-32.046	31.08	0.98755	-0.00104	0.00293	0.15692
21:04:04.761	e1:5b:a6:6b:d9:35	2015-1-1 0:19:59.110	-0.004	0.001	1.006	-0.122	0.061	0	-0.088	0.324	18.138	5.488	16.464	-32.046	31.08	0.98755	-0.00104	0.00293	0.15692
21:04:04.881	e1:5b:a6:6b:d9:35	2015-1-1 0:19:59.110	-0.003	0.001	1.007	0	0	0	-0.088	0.319	18.149	5.488	16.464	-32.046	31.08	0.98755	-0.00104	0.00293	0.15692
21:04:04.971	e1:5b:a6:6b:d9:35	2015-1-1 0:19:59.110	-0.003	0.001	1.006	0	0	0	-0.077	0.313	18.16	5.488	16.464	-32.046	31.08	0.98755	-0.00104	0.00293	0.15692
21:04:05.120	e1:5b:a6:6b:d9:35	2015-1-1 0:19:59.110	-0.004	0.001	1.005	0	0	0	-0.066	0.308	18.166	5.488	16.464	-32.046	31.08	0.98755	-0.00104	0.00293	0.15692
21:04:05.150	e1:5b:a6:6b:d9:35	2015-1-1 0:19:59.110	-0.003	0.001	1.007	0	0	0	-0.06	0.302	18.177	5.488	16.464	-32.046	31.08	0.98755	-0.00104	0.00293	0.15692
21:04:05.270	e1:5b:a6:6b:d9:35	2015-1-1 0:19:59.615	-0.004	0.001	1.005	0	0	0	-0.049	0.297	18.188	5.488	16.464	-32.046	31.08	0.98755	-0.00104	0.00293	0.15692
21:04:05.361	e1:5b:a6:6b:d9:35	2015-1-1 0:19:59.615	-0.003	0.001	1.006	0	0	0	-0.044	0.291	18.193	5.488	16.464	-32.046	31.08	0.98755	-0.00104	0.00293	0.15692
21:04:05.481	e1:5b:a6:6b:d9:35	2015-1-1 0:19:59.615	-0.003	0	1.005	0	0	0	-0.038	0.286	18.204	5.488	16.464	-32.046	31.08	0.98755	-0.00104	0.00293	0.15692
21:04:05.572	e1:5b:a6:6b:d9:35	2015-1-1 0:19:59.615	-0.003	0	1.005	0	0	0	-0.033	0.28	18.21	5.488	16.464	-32.144	31.08	0.98755	-0.00104	0.00293	0.15692
21:04:05.692	e1:5b:a6:6b:d9:35	2015-1-1 0:19:59.615	-0.003	0.001	1.005	0	0.061	-1.404	-0.027	0.28	18.012	5.488	16.464	-32.144	31.08	0.98761	-0.00061	0.00238	0.15652
21:04:05.752	e1:5b:a6:6b:d9:35	2015-1-1 0:20:0.150	-0.004	0.001	1.006	0.122	0	-4.211	-0.011	0.291	17.595	5.488	16.464	-32.144	31.08	0.98761	-0.00061	0.00238	0.15652
21:04:05.901	e1:5b:a6:6b:d9:35	2015-1-1 0:20:0.150	-0.003	0.001	1.005	-0.122	0.061	-5.066	0.005	0.291	17.336	5.488	16.464	-32.144	31.08	0.98761	-0.00061	0.00238	0.15652
21:04:05.961	e1:5b:a6:6b:d9:35	2015-1-1 0:20:0.150	-0.005	0.001	1.007	-0.671	0.793	0.183	0	0.308	17.144	5.488	16.464	-32.144	31.08	0.98761	-0.00061	0.00238	0.15652
21:04:06.081	e1:5b:a6:6b:d9:35	2015-1-1 0:20:0.150	-0.005	0	1.006	0	0.061	0	-0.005	0.335	17.128	5.096	16.660	-32.046	31.08	0.98761	-0.00061	0.00238	0.15652
21:04:06.171	e1:5b:a6:6b:d9:35	2015-1-1 0:20:0.150	-0.005	0	1.006	0.061	0	0	0	0.335	17.111	5.096	16.660	-32.046	31.08	0.98883	-0.00043	0.0029	0.14874
21:04:06.290	e1:5b:a6:6b:d9:35	2015-1-1 0:20:0.630	-0.005	0	1.006	0.061	0	0	0.005	0.335	17.089	5.096	16.660	-32.046	31.08	0.98883	-0.00043	0.0029	0.14874
21:04:06.381	e1:5b:a6:6b:d9:35	2015-1-1 0:20:0.630	-0.005	0	1.005	0.061	0	0	0.011	0.33	17.067	5.096	16.660	-32.046	31.08	0.98883	-0.00043	0.0029	0.14874
21:04:06.501	e1:5b:a6:6b:d9:35	2015-1-1 0:20:0.630	-0.004	0	1.006	0.061	0	0	0.016	0.33	17.062	5.096	16.660	-32.046	31.08	0.98883	-0.00043	0.0029	0.14874
21:04:06.562	e1:5b:a6:6b:d9:35	2015-1-1 0:20:0.630	-0.005	0	1.006	0.061	0	0	0.022	0.33	17.04	5.292	16.562	-32.046	31.08	0.98883	-0.00043	0.0029	0.14874
21:04:06.682	e1:5b:a6:6b:d9:35	2015-1-1 0:20:0.630	-0.005	0	1.005	0.122	0	0	0.033	0.324	17.023	5.292	16.562	-32.046	31.08	0.98895	-9E-05	0.00287	0.14795
21:04:06.771	e1:5b:a6:6b:d9:35	2015-1-1 0:20:1.135	-0.005	0	1.006	0.122	0	0	0.038	0.324	16.99	5.292	16.562	-32.046	31.08	0.98895	-9E-05	0.00287	0.14795
21:04:06.891	e1:5b:a6:6b:d9:35	2015-1-1 0:20:1.135	-0.005	0	1.006	0.122	0	0	0.049	0.324	16.979	5.292	16.562	-32.046	31.08	0.98895	-9E-05	0.00287	0.14795
21:04:06.981	e1:5b:a6:6b:d9:35	2015-1-1 0:20:1.135	-0.005	0	1.005	0.061	0	0	0.055	0.324	16.941	5.292	16.562	-32.046	31.08	0.98895	-9E-05	0.00287	0.14795
21:04:07.132	e1:5b:a6:6b:d9:35	2015-1-1 0:20:1.135	-0.005	0	1.006	0.122	0	0	0.066	0.319	16.902	5.292	16.562	-32.144	31.08	0.98895	-9E-05	0.00287	0.14795
21:04:07.162	e1:5b:a6:6b:d9:35	2015-1-1 0:20:1.135	-0.005	0	1.005	0.061	0	0	0.071	0.319	16.864	5.292	16.562	-32.144	31.08	0.98895	-9E-05	0.00287	0.14795
21:04:07.282	e1:5b:a6:6b:d9:35	2015-1-1 0:20:1.640	-0.005	0	1.005	0.061	0	0	0.077	0.319	16.826	5.292	16.562	-32.144	31.08	0.98917	0.00024	0.00287	0.14645
21:04:07.371	e1:5b:a6:6b:d9:35	2015-1-1 0:20:1.640	-0.005	0	1.006	0.061	0	0	0.082	0.319	16.793	5.292	16.562	-32.144	31.08	0.98917	0.00024	0.00287	0.14645
21:04:07.492	e1:5b:a6:6b:d9:35	2015-1-1 0:20:1.640	-0.005	0	1.005	0.122	0	0	0.088	0.319	16.76	5.292	16.562	-32.144	31.08	0.98917	0.00024	0.00287	0.14645
21:04:07.581	e1:5b:a6:6b:d9:35	2015-1-1 0:20:1.640	-0.005	0	1.005	-0.244	0.61	0	0.11	0.302	16.749	5.292	16.562	-32.144	31.08	0.98917	0.00024	0.00287	0.14645
21:04:07.701	e1:5b:a6:6b:d9:35	2015-1-1 0:20:1.640	-0.007	0	1.006	0.122	0	0	0.104	0.313	16.754	5.292	16.562	-32.144	31.08	0.98917	0.00024	0.00287	0.14645
21:04:07.791	e1:5b:a6:6b:d9:35	2015-1-1 0:20:2.145	-0.007	-0.001	1.005	-0.61	1.099	0	0.11	0.33	16.743	5.292	16.562	-32.144	31.08	0.98917	0.00024	0.00287	0.14645
21:04:07.911	e1:5b:a6:6b:d9:35	2015-1-1 0:20:2.145	-0.005	0	1.005	0.122	0	0	0.104	0.341	16.743	5.292	16.562	-32.144	31.08	0.98917	0.00024	0.00287	0.14645
21:04:07.970	e1:5b:a6:6b:d9:35	2015-1-1 0:20:2.145	-0.002	0	1.006	0.122	0.061	0	0.11	0.346	16.743	5.292	16.562	-32.144	31.08	0.98917	0.00024	0.00287	0.14645
21:04:08.091	e1:5b:a6:6b:d9:35	2015-1-1 0:20:2.145	-0.005	0.001	1.006	0.244	-0.488	-0.183	0.148	0.286	16.76	5.292	16.660	-32.144	31.08	0.98917	0.00024	0.00287	0.14645
21:04:08.181	e1:5b:a6:6b:d9:35	2015-1-1 0:20:2.145	-0.005	0	1.005	0.366	-0.244	0	0.137	0.335	16.776	5.292	16.660	-32.144	31.08	0.98926	0.00067	0.00317	0.1459
21:04:08.330	e1:5b:a6:6b:d9:35	2015-1-1 0:20:2.655	-0.005	0	1.006	0.122	0	0	0.126	0.352	16.782	5.292	16.660	-32.144	31.08	0.98926	0.00067	0.00317	0.1459
21:04:08.390	e1:5b:a6:6b:d9:35	2015-1-1 0:20:2.655	-0.005	0	1.006	0.061	0	0	0.132	0.352	16.782	5.292	16.660	-32.144	31.08	0.98926	0.00067	0.00317	0.1459
21:04:08.512	e1:5b:a6:6b:d9:35	2015-1-1 0:20:2.655	-0.005	0	1.006	0.122	0	0	0.132	0.346	16.782	5.292	16.660	-32.144	31.08	0.98926	0.00067	0.00317	0.1459
21:04:08.572	e1:5b:a6:6b:d9:35	2015-1-1 0:20:2.655	-0.005	0	1.006	0.244	-0.183	0	0.137	0.346	16.782	5.292	16.660	-32.144	31.08	0.98926	0.00067	0.00317	0.1459
21:04:08.692	e1:5b:a6:6b:d9:35	2015-1-1 0:20:2.655	-0.005	0	1.006	0.183	-0.061	0	0.137	0.346	16.765	5.096	16.660	-32.046	31.08	0.98929	0.00095	0.00299	0.14569
21:04:08.780	e1:5b:a6:6b:d9:35	2015-1-1 0:20:2.655	-0.004	0.001	1.006	0.977	-1.221	0	0.159	0.324	16.743	5.096	16.660	-32.046	31.08	0.98929	0.00095	0.00299	0.14569
21:04:08.902	e1:5b:a6:6b:d9:35	2015-1-1 0:20:3.160	-0.004	0	1.006	0.244	-0.305	0	0.176	0.302	16.743	5.096	16.660	-32.046	31.08	0.98929	0.00095	0.00299	0.14569
21:04:08.992	e1:5b:a6:6b:d9:35	2015-1-1 0:20:3.160	-0.004	0	1.005	0.122	-0.183	-0.671	0.181	0.275	16.732	5.096	16.660	-32.046	31.08	0.98929	0.00095	0.00299	0.14569
21:04:09.110	e1:5b:a6:6b:d9:35	2015-1-1 0:20:3.160	-0.003	-0.001	1.006	0	0	-12.634	0.176	0.247	15.749	4.508	16.758	-32.046	31.08	0.98929	0.00095	0.00299	0.14569
21:04:09.200	e1:5b:a6:6b:d9:35	2015-1-1 0:20:3.160	-0.003	-0.003	1.005	0	0	-13.855	0.165	0.231	14.502	4.508	16.758	-32.046	31.08	0.99268	0.00116	0.00214	0.12036
21:04:09.322	e1:5b:a6:6b:d9:35	2015-1-1 0:20:3.665	-0.003	0.001	1.005	-0.366	0	-4.639	0.148	0.22	13.337	4.508	16.758	-32.046	31.08	0.99268	0.00116	0.00214	0.12036
21:04:09.382	e1:5b:a6:6b:d9:35	2015-1-1 0:20:3.665	-0.003	-0.001	1.006	-0.244	-0.244	-6.714	0.137	0.22	12.728	4.508	16.758	-32.046	31.08	0.99268	0.00116	0.00214	0.12036
21:04:09.501	e1:5b:a6:6b:d9:35	2015-1-1 0:20:3.665	-0.002	0	1.006	-0.061	-0.061	-5.127	0.137	0.231	12.129	4.508	16.758	-32.046	31.08	0.99268	0.00116	0.00214	0.12036
21:04:09.591	e1:5b:a6:6b:d9:35	2015-1-1 0:20:3.665	-0.003	0	1.006	0.305	0.061	-2.014	0.148	0.231	11.81	4.508	16.758	-32.046	31.08	0.99268	0.00116	0.00214	0.12036
21:04:09.711	e1:5b:a6:6b:d9:35	2015-1-1 0:20:3.665	-0.003	0.001	1.006	0.061	0	-0.061	0.159	0.231	11.689	3.430	17.150	-32.046	31.08	0.99478	0.00143	0.00217	0.1015
21:04:09.802	e1:5b:a6:6b:d9:35	2015-1-1 0:20:3.665	-0.002	0.001	1.005	-0.183	-0.061	0	0.198	0.225	11.618	3.430	17.150	-32.046	31.08	0.99478	0.00143	0.00217	0.1015
21:04:09.921	e1:5b:a6:6b:d9:35	2015-1-1 0:20:4.145	-0.002	0.001	1.005	0	0	0	0.198	0.225	11.558	3.430	17.150	-32.046	31.08	0.99478	0.00143	0.00217	0.1015
21:04:09.981	e1:5b:a6:6b:d9:35	2015-1-1 0:20:4.145	-0.003	0.001	1.006	-0.122	0	0	0.198	0.22	11.497	3.430	17.150	-32.046	31.08	0.99478	0.00143	0.00217	0.1015
21:04:10.101	e1:5b:a6:6b:d9:35	2015-1-1 0:20:4.145	-0.003	0	1.004	-0.122	-0.122	0	0.187	0.214	11.431	3.430	17.150	-32.046	31.08	0.99478	0.00143	0.00217	0.1015
21:04:10.191	e1:5b:a6:6b:d9:35	2015-1-1 0:20:4.145	-0.003	0.002	1.006	0.061	0	0	0.192	0.214	11.376	3.430	17.150	-32.046	31.08	0.99478	0.00143	0.00217	0.1015
21:04:10.310	e1:5b:a6:6b:d9:35	2015-1-1 0:20:4.145	-0.003	0.002	1.006	-0.244	-0.061	0	0.176	0.214	11.316	3.430	17.150	-32.046	31.08	0.99478	0.00143	0.00217	0.1015
21:04:10.402	e1:5b:a6:6b:d9:35	2015-1-1 0:20:4.145	-0.003	0.001	1.006	0.061	0	0	0.159	0.209	11.261	3.430	17.150	-32.046	31.08	0.99478	0.00143	0.00217	0.1015
21:04:10.522	e1:5b:a6:6b:d9:35	2015-1-1 0:20:4.145	-0.002	0.001	1.006	0	0	0	0.154	0.203	11.223	3.430	17.150	-32.046	31.08	0.99478	0.00143	0.00217	0.1015
21:04:10.612	e1:5b:a6:6b:d9:35	2015-1-1 0:20:4.145	-0.002	0.001	1.006	0	-0.061	0	0.148	0.198	11.179	3.430	17.150	-32.046	31.08	0.99478	0.00143	0.00217	0.1015
21:04:10.732	e1:5b:a6:6b:d9:35	2015-1-1 0:20:4.145	-0.004	0	1.006	-0.122	0	0	0.137	0.192	11.129	3.234	17.150	-32.046	31.08	0.99527	0.00089	0.0018	0.09665
21:04:10.791	e1:5b:a6:6b:d9:35	2015-1-1 0:20:4.145	-0.002	0.001	1.005	0.549	0.061	-0.061	0.132	0.214	11.074	3.234	17.150	-32.046	31.08	0.99527	0.00089	0.0018	0.09665
21:04:10.911	e1:5b:a6:6b:d9:35	2015-1-1 0:20:5.155	-0.002	0.002	1.006	1.77	-0.122	-5.859	0.198	0.214	10.981	3.234	17.150	-32.046	31.08	0.99527	0.00089	0.0018	0.09665
21:04:11.001	e1:5b:a6:6b:d9:35	2015-1-1 0:20:5.155	-0.003	0	1.006	-0.061	-0.122	-0.977	0.247	0.22	10.596	3.234	17.150	-32.046	31.08	0.99527	0.00089	0.0018	0.09665
21:04:11.122	e1:5b:a6:6b:d9:35	2015-1-1 0:20:5.155	-0.001	0.002	1.005	0.122	0.122	-3.235	0.253	0.22	10.085	3.234	17.150	-32.046	31.08	0.99527	0.00089	0.0018	0.09665
21:04:11.211	e1:5b:a6:6b:d9:35	2015-1-1 0:20:5.155	-0.004	0	1.007	0.61	0.427	-2.869	0.253	0.22	9.816	3.234	17.150	-32.046	31.08	0.99527	0.00089	0.0018	0.09665
21:04:11.332	e1:5b:a6:6b:d9:35	2015-1-1 0:20:5.155	-0.036	0	1.005	0	-0.183	-12.39	0.28	0.231	9.014	3.234	17.150	-32.046	31.08	0.99527	0.00089	0.0018	0.09665
21:04:11.391	e1:5b:a6:6b:d9:35	2015-1-1 0:20:5.660	0.021	0.013	1.006	0.793	0	-2.686	0.28	0.247	7.789	3.234	17.150	-32.046	31.08	0.99527	0.00089	0.0018	0.09665
21:04:11.511	e1:5b:a6:6b:d9:35	2015-1-1 0:20:5.660	0.062	0.005	1.006	-0.244	-0.122	18.738	0.291	0.28	10.305	3.234	17.150	-32.046	31.08	0.99527	0.00089	0.0018	0.09665
21:04:11.602	e1:5b:a6:6b:d9:35	2015-1-1 0:20:5.660	-0.004	0.037	1.01	-1.404	0	31.738	0.258	0.335	11.821	3.234	17.150	-32.046	31.08	0.99527	0.00089	0.0018	0.09665
21:04:11.721	e1:5b:a6:6b:d9:35	2015-1-1 0:20:5.660	-0.001	0.003	1.005	-0.671	0.122	0	0.209	0.308	12.096	3.234	17.150	-32.046	31.08	0.99527	0.00089	0.0018	0.09665
21:04:11.812	e1:5b:a6:6b:d9:35	2015-1-1 0:20:5.660	-0.03	-0.014	1.006	0.61	0.244	38.94	0.236	0.308	14.414	3.234	17.150	-32.046	31.08	0.99527	0.00089	0.0018	0.09665
21:04:11.931	e1:5b:a6:6b:d9:35	2015-1-1 0:20:6.170	-0.063	-0.002	1.007	1.77	0.366	21.545	0.33	0.302	16.562	3.234	17.150	-32.046	31.08	0.99527	0.00089	0.0018	0.09665
21:04:12.021	e1:5b:a6:6b:d9:35	2015-1-1 0:20:6.170	-0.139	-0.397	5.698	-16.724	63.232	42.114	-0.45	1.763	20.253	3.234	17.150	-32.046	31.08	0.99527	0.00089	0.0018	0.09665
21:04:12.141	e1:5b:a6:6b:d9:35	2015-1-1 0:20:6.170	-0.425	-0.143	1.073	72.876	173.401	120.483	4.592	13.233	31.382	3.234	17.150	-32.046	31.08	0.99527	0.00089	0.0018	0.09665
21:04:12.203	e1:5b:a6:6b:d9:35	2015-1-1 0:20:6.170	-0.353	0.434	0.587	283.63	231.567	179.26	37.244	30.685	57.838	28.126	2.744	-24.990	31.08	0.99527	0.00089	0.0018	0.09665
21:04:12.320	e1:5b:a6:6b:d9:35	2015-1-1 0:20:6.170	-0.334	0.835	-0.064	138.855	65.918	82.153	64.973	29.702	82.161	28.126	2.744	-24.990	31.08	0.71933	0.23682	0.49323	0.42789
21:04:12.410	e1:5b:a6:6b:d9:35	2015-1-1 0:20:6.170	-0.32	1.033	-0.012	74.219	154.48	101.929	78.734	25.686	100.492	28.126	2.744	-24.990	31.08	0.71933	0.23682	0.49323	0.42789
21:04:12.531	e1:5b:a6:6b:d9:35	2015-1-1 0:20:6.170	-0.349	0.919	-0.087	4.272	40.344	21.851	87.237	21.588	111.379	28.126	2.744	-24.990	31.08	0.71933	0.23682	0.49323	0.42789
21:04:12.621	e1:5b:a6:6b:d9:35	2015-1-1 0:20:6.170	-0.339	0.891	0.004	-29.358	1.77	14.465	85.924	19.336	114.604	28.126	2.744	-24.990	31.08	0.71933	0.23682	0.49323	0.42789
21:04:12.741	e1:5b:a6:6b:d9:35	2015-1-1 0:20:6.170	-0.305	0.95	0.083	-57.556	-21.667	3.784	81.216	19.226	114.664	32.536	-40.964	19.992	31.08	0.71933	0.23682	0.49323	0.42789
21:04:12.801	e1:5b:a6:6b:d9:35	2015-1-1 0:20:6.170	-0.334	0.944	0.133	-35.767	-1.648	4.822	77.679	18.594	115.027	32.536	-40.964	19.992	31.08	0.71933	0.23682	0.49323	0.42789
21:04:12.921	e1:5b:a6:6b:d9:35	2015-1-1 0:20:6.170	-0.283	0.897	0.219	-47.302	-30.212	13.489	72.74	17.996	115.274	32.536	-40.964	19.992	31.08	0.71933	0.23682	0.49323	0.42789
21:04:13.011	e1:5b:a6:6b:d9:35	2015-1-1 0:20:6.170	-0.228	0.858	0.246	-19.348	-6.409	19.714	70.746	15.244	115.972	32.536	-40.964	19.992	31.08	0.71933	0.23682	0.49323	0.42789
21:04:13.131	e1:5b:a6:6b:d9:35	2015-1-1 0:20:6.170	-0.23	0.938	0.285	-35.583	33.691	3.601	69.296	14.409	118.597	32.536	-40.964	19.992	31.08	0.71933	0.23682	0.49323	0.42789
21:04:13.221	e1:5b:a6:6b:d9:35	2015-1-1 0:20:6.170	-0.29	0.916	0.31	-18.86	-2.563	3.784	67.429	14.936	121.976	29.596	-43.512	6.370	31.08	0.71933	0.23682	0.49323	0.42789
21:04:13.342	e1:5b:a6:6b:d9:35	2015-1-1 0:20:6.170	-0.372	0.881	0.395	6.165	11.292	-38.879	65.682	16.26	121.882	29.596	-43.512	6.370	31.08	0.47098	0.15683	0.52698	0.68976
21:04:13.431	e1:5b:a6:6b:d9:35	2015-1-1 0:20:7.750	-0.586	0.871	0.324	27.222	58.289	-127.808	69.022	23.665	121.613	29.596	-43.512	6.370	31.08	0.47098	0.15683	0.52698	0.68976
21:04:13.550	e1:5b:a6:6b:d9:35	2015-1-1 0:20:7.750	-0.625	0.694	0.224	35.278	13.55	-135.376	72.636	34.063	121.805	29.596	-43.512	6.370	31.08	0.47098	0.15683	0.52698	0.68976
21:04:13.611	e1:5b:a6:6b:d9:35	2015-1-1 0:20:7.750	-0.595	0.714	0.24	34.302	-78.796	-24.902	72.279	37.963	114.489	29.596	-43.512	6.370	31.08	0.47098	0.15683	0.52698	0.68976
21:04:13.731	e1:5b:a6:6b:d9:35	2015-1-1 0:20:7.750	-0.603	0.826	0.287	-26.855	-185.425	-13.611	65.649	38.732	103.535	44.100	-24.696	8.134	31.08	0.47098	0.15683	0.52698	0.68976
21:04:13.912	e1:5b:a6:6b:d9:35	2015-1-1 0:20:7.750	-0.591	0.674	0.45	-2.747	-37.048	0.916	56.365	34.618	91.11	44.100	-24.696	8.134	31.08	0.47098	0.15683	0.52698	0.68976
21:04:13.942	e1:5b:a6:6b:d9:35	2015-1-1 0:20:7.750	-0.521	0.683	0.47	-0.305	-41.443	-19.104	55.399	32.377	88.391	44.100	-24.696	8.134	31.08	0.47098	0.15683	0.52698	0.68976
21:04:14.092	e1:5b:a6:6b:d9:35	2015-1-1 0:20:7.750	-0.491	0.71	0.511	12.878	-4.15	10.132	54.63	30.58	87.407	44.100	-24.696	8.134	31.08	0.47098	0.15683	0.52698	0.68976
21:04:14.151	e1:5b:a6:6b:d9:35	2015-1-1 0:20:7.750	-0.45	0.729	0.491	11.841	-7.507	21.423	56.667	28.795	88.901	44.100	-24.696	8.134	31.08	0.47098	0.15683	0.52698	0.68976